Folder: HESEBScanTool/tmp/SEM[1]/XAFS/20185101/data/csv (part 9)

File: TestByMz_Scan(1)2021_10_11T15_40_37.xdi
# XDI/1.0 SED_XAFS/0.9
# Column.1: energy eV
# Column.2: Ionization Chamber (IC) number 1
# Column.3: Ionization Chamber (IC) number 2
# Column.4: Ionization Chamber (IC) number 3
# Column.5: Transmission (log(IC1 current/ IC2 current))
# Column.6: Transmission Reference (log(IC2 current/IC3 current))
# Column.7: KETEK-If
# Column.8: KETEK-FLUOR
# Column.9: KETEK-ROI_0[c/s]
# Column.10: KETEK-ROI_1[c/s]
# Column.11: KETEK-ROI_2[c/s]
# Column.12: KETEK-ROI_3[c/s]
# Column.13: KETEK-ROI_4[c/s]
# Column.14: KETEK-ROI_5[c/s]
# Column.15: KETEK-ROI_6[c/s]
# Column.16: KETEK-ROI_7[c/s]
# Column.17: KETEK-e-time[sec]
# Column.18: KETEK-DEADTIME[%]
# Column.19: KETEK-INT_TIME[sec]
# Column.20: KETEK-OCR
# Column.21: KETEK-ICR
# Base.file_name: TestByMz
# Scan.edge_energy: 8980.0
# Mono.name: Si 111
# Mono.d_spacing: 3.13553
# Beamline.name: 13ID
# Beamline.collimation: slits
# Beamline.focusing: no
# Beamline.harmonic_rejection: rhodium-coated mirror
# Facility.name: SESAME Synchrotron
# Facility.energy: 2.50 GeV
# Facility.xray_source: SESAME Bending Magnet
# Scan.start_time: 2021-10-11T15:40:47
# Detector.IC1: 15cm  He
# Detector.IC2: 30cm  He
# Detector.IC3: 15cm  He
# Sample.name: Cu
# Sample.prep: Cu metal foil
# ///
# Cu foil Room Temperature
# measured at beamline 08-BM XAFS/XRF Beamline
#----
#(1)ENERGY-RBK   (2)IC1[V]   (3)IC2[V]   (4)IC3[V]   (5)TRANS   (6)TransRef   (7)KETEK-If   (8)KETEK-FLUOR   (9)KETEK-ROI_0[c/s]   (10)KETEK-ROI_1[c/s]   (11)KETEK-ROI_2[c/s]   (12)KETEK-ROI_3[c/s]   (13)KETEK-ROI_4[c/s]   (14)KETEK-ROI_5[c/s]   (15)KETEK-ROI_6[c/s]   (16)KETEK-ROI_7[c/s]   (17)KETEK-e-time[sec]   (18)KETEK-DEADTIME[%]   (19)KETEK-INT_TIME[sec]   (20)KETEK-OCR   (21)KETEK-ICR
1.525000e+01 1.000000e-16 1.000000e-16 5.114222e-03 0.000000e+00 -3.156563e+01 0.000000e+00 0.000000e+00 0.000000e+00 0.000000e+00 0.000000e+00 0.000000e+00 0.000000e+00 0.000000e+00 0.000000e+00 0.000000e+00 9.969866e-01 4.327727e-01 1.001320e+00 0.000000e+00 0.000000e+00
1.525096e+01 1.000000e-16 1.000000e-16 5.089191e-03 0.000000e+00 -3.156073e+01 0.000000e+00 0.000000e+00 0.000000e+00 0.000000e+00 0.000000e+00 0.000000e+00 0.000000e+00 0.000000e+00 0.000000e+00 0.000000e+00 1.006504e+00 1.196217e-01 1.007710e+00 0.000000e+00 0.000000e+00
1.525198e+01 1.000000e-16 1.000000e-16 5.182166e-03 0.000000e+00 -3.157883e+01 0.000000e+00 0.000000e+00 0.000000e+00 0.000000e+00 0.000000e+00 0.000000e+00 0.000000e+00 0.000000e+00 0.000000e+00 0.000000e+00 1.006590e+00 1.205630e-01 1.007805e+00 0.000000e+00 0.000000e+00
1.525303e+01 1.000000e-16 1.000000e-16 5.010280e-03 0.000000e+00 -3.154510e+01 0.000000e+00 0.000000e+00 0.000000e+00 0.000000e+00 0.000000e+00 0.000000e+00 0.000000e+00 0.000000e+00 0.000000e+00 0.000000e+00 1.006320e+00 1.063182e-01 1.007391e+00 0.000000e+00 0.000000e+00
1.525402e+01 1.000000e-16 1.000000e-16 5.176921e-03 0.000000e+00 -3.157782e+01 0.000000e+00 0.000000e+00 0.000000e+00 0.000000e+00 0.000000e+00 0.000000e+00 0.000000e+00 0.000000e+00 0.000000e+00 0.000000e+00 1.006199e+00 1.047759e-01 1.007254e+00 0.000000e+00 0.000000e+00
1.525498e+01 1.000000e-16 1.000000e-16 5.041033e-03 0.000000e+00 -3.155122e+01 0.000000e+00 0.000000e+00 0.000000e+00 0.000000e+00 0.000000e+00 0.000000e+00 0.000000e+00 0.000000e+00 0.000000e+00 0.000000e+00 1.006184e+00 1.206433e-01 1.007400e+00 0.000000e+00 0.000000e+00
1.525603e+01 1.000000e-16 1.000000e-16 5.085138e-03 0.000000e+00 -3.155993e+01 0.000000e+00 0.000000e+00 0.000000e+00 0.000000e+00 0.000000e+00 0.000000e+00 0.000000e+00 0.000000e+00 0.000000e+00 0.000000e+00 1.006620e+00 9.905336e-02 1.007619e+00 0.000000e+00 0.000000e+00
1.525608e+01 1.000000e-16 1.000000e-16 5.127572e-03 0.000000e+00 -3.156824e+01 0.000000e+00 0.000000e+00 0.000000e+00 0.000000e+00 0.000000e+00 0.000000e+00 0.000000e+00 0.000000e+00 0.000000e+00 0.000000e+00 1.922676e+00 3.573850e-01 1.929572e+00 0.000000e+00 1.560326e+00
1.525702e+01 1.000000e-16 1.000000e-16 5.041033e-03 0.000000e+00 -3.155122e+01 0.000000e+00 0.000000e+00 0.000000e+00 0.000000e+00 0.000000e+00 0.000000e+00 0.000000e+00 0.000000e+00 0.000000e+00 0.000000e+00 2.919029e+00 3.096838e-01 2.928097e+00 0.000000e+00 1.027739e+00
1.525803e+01 1.000000e-16 1.000000e-16 5.045325e-03 0.000000e+00 -3.155207e+01 0.000000e+00 0.000000e+00 0.000000e+00 0.000000e+00 0.000000e+00 0.000000e+00 0.000000e+00 0.000000e+00 0.000000e+00 0.000000e+00 3.004100e+00 1.211273e-01 3.007744e+00 0.000000e+00 0.000000e+00
1.525903e+01 1.000000e-16 1.000000e-16 5.034120e-03 0.000000e+00 -3.154984e+01 0.000000e+00 0.000000e+00 0.000000e+00 0.000000e+00 0.000000e+00 0.000000e+00 0.000000e+00 0.000000e+00 0.000000e+00 0.000000e+00 3.003903e+00 1.216879e-01 3.007563e+00 0.000000e+00 0.000000e+00

File: TestByMz_Scan(1)2021_10_11T15_50_58.xdi
# XDI/1.0 SED_XAFS/0.9
# Column.1: energy eV
# Column.2: Ionization Chamber (IC) number 1
# Column.3: Ionization Chamber (IC) number 2
# Column.4: Ionization Chamber (IC) number 3
# Column.5: Transmission (log(IC1 current/ IC2 current))
# Column.6: Transmission Reference (log(IC2 current/IC3 current))
# Column.7: KETEK-If
# Column.8: KETEK-FLUOR
# Column.9: KETEK-ROI_0[c/s]
# Column.10: KETEK-ROI_1[c/s]
# Column.11: KETEK-ROI_2[c/s]
# Column.12: KETEK-ROI_3[c/s]
# Column.13: KETEK-ROI_4[c/s]
# Column.14: KETEK-ROI_5[c/s]
# Column.15: KETEK-ROI_6[c/s]
# Column.16: KETEK-ROI_7[c/s]
# Column.17: KETEK-e-time[sec]
# Column.18: KETEK-DEADTIME[%]
# Column.19: KETEK-INT_TIME[sec]
# Column.20: KETEK-OCR
# Column.21: KETEK-ICR
# Base.file_name: TestByMz
# Scan.edge_energy: 8980.0
# Mono.name: Si 111
# Mono.d_spacing: 3.13553
# Beamline.name: 13ID
# Beamline.collimation: slits
# Beamline.focusing: no
# Beamline.harmonic_rejection: rhodium-coated mirror
# Facility.name: SESAME Synchrotron
# Facility.energy: 2.50 GeV
# Facility.xray_source: SESAME Bending Magnet
# Scan.start_time: 2021-10-11T15:53:06
# Detector.IC1: 15cm  He
# Detector.IC2: 30cm  He
# Detector.IC3: 15cm  He
# Sample.name: Cu
# Sample.prep: Cu metal foil
# ///
# Cu foil Room Temperature
# measured at beamline 08-BM XAFS/XRF Beamline
#----
#(1)ENERGY-RBK   (2)IC1[V]   (3)IC2[V]   (4)IC3[V]   (5)TRANS   (6)TransRef   (7)KETEK-If   (8)KETEK-FLUOR   (9)KETEK-ROI_0[c/s]   (10)KETEK-ROI_1[c/s]   (11)KETEK-ROI_2[c/s]   (12)KETEK-ROI_3[c/s]   (13)KETEK-ROI_4[c/s]   (14)KETEK-ROI_5[c/s]   (15)KETEK-ROI_6[c/s]   (16)KETEK-ROI_7[c/s]   (17)KETEK-e-time[sec]   (18)KETEK-DEADTIME[%]   (19)KETEK-INT_TIME[sec]   (20)KETEK-OCR   (21)KETEK-ICR
1.524997e+01 1.000000e-16 1.000000e-16 5.104925e-03 0.000000e+00 -3.156381e+01 0.000000e+00 0.000000e+00 0.000000e+00 0.000000e+00 0.000000e+00 0.000000e+00 0.000000e+00 0.000000e+00 0.000000e+00 0.000000e+00 1.003279e+00 4.479333e-01 1.007793e+00 0.000000e+00 0.000000e+00
1.525096e+01 1.000000e-16 1.000000e-16 5.096342e-03 0.000000e+00 -3.156213e+01 0.000000e+00 0.000000e+00 0.000000e+00 0.000000e+00 0.000000e+00 0.000000e+00 0.000000e+00 0.000000e+00 0.000000e+00 0.000000e+00 1.006252e+00 1.234586e-01 1.007496e+00 0.000000e+00 9.937870e-01
1.525201e+01 1.000000e-16 1.000000e-16 5.159519e-03 0.000000e+00 -3.157445e+01 0.000000e+00 0.000000e+00 0.000000e+00 0.000000e+00 0.000000e+00 0.000000e+00 0.000000e+00 0.000000e+00 0.000000e+00 0.000000e+00 1.006416e+00 1.203618e-01 1.007629e+00 0.000000e+00 0.000000e+00
1.525303e+01 1.000000e-16 1.000000e-16 5.110170e-03 0.000000e+00 -3.156484e+01 0.000000e+00 0.000000e+00 0.000000e+00 0.000000e+00 0.000000e+00 0.000000e+00 0.000000e+00 0.000000e+00 0.000000e+00 0.000000e+00 1.006238e+00 1.014079e-01 1.007259e+00 0.000000e+00 0.000000e+00
1.525402e+01 1.000000e-16 1.000000e-16 5.117322e-03 0.000000e+00 -3.156624e+01 0.000000e+00 0.000000e+00 0.000000e+00 0.000000e+00 0.000000e+00 0.000000e+00 0.000000e+00 0.000000e+00 0.000000e+00 0.000000e+00 1.006161e+00 1.316225e-01 1.007487e+00 0.000000e+00 0.000000e+00
1.525501e+01 1.000000e-16 1.000000e-16 5.101587e-03 0.000000e+00 -3.156316e+01 0.000000e+00 0.000000e+00 0.000000e+00 0.000000e+00 0.000000e+00 0.000000e+00 0.000000e+00 0.000000e+00 0.000000e+00 0.000000e+00 1.006150e+00 1.066217e-01 1.007224e+00 0.000000e+00 0.000000e+00
1.525597e+01 1.000000e-16 1.000000e-16 5.087522e-03 0.000000e+00 -3.156040e+01 0.000000e+00 0.000000e+00 0.000000e+00 0.000000e+00 0.000000e+00 0.000000e+00 0.000000e+00 0.000000e+00 0.000000e+00 0.000000e+00 1.006381e+00 1.051060e-01 1.007440e+00 0.000000e+00 0.000000e+00
1.525600e+01 1.000000e-16 1.000000e-16 5.148075e-03 0.000000e+00 -3.157223e+01 0.000000e+00 0.000000e+00 0.000000e+00 0.000000e+00 0.000000e+00 0.000000e+00 0.000000e+00 0.000000e+00 0.000000e+00 0.000000e+00 1.994231e+00 3.706063e-01 2.001650e+00 0.000000e+00 0.000000e+00
1.525704e+01 1.000000e-16 1.000000e-16 5.272281e-03 0.000000e+00 -3.159607e+01 0.000000e+00 0.000000e+00 0.000000e+00 0.000000e+00 0.000000e+00 0.000000e+00 0.000000e+00 0.000000e+00 0.000000e+00 0.000000e+00 2.998296e+00 2.881315e-01 3.006960e+00 0.000000e+00 0.000000e+00
1.525803e+01 1.000000e-16 1.000000e-16 5.220310e-03 0.000000e+00 -3.158616e+01 0.000000e+00 0.000000e+00 0.000000e+00 0.000000e+00 0.000000e+00 0.000000e+00 0.000000e+00 0.000000e+00 0.000000e+00 0.000000e+00 3.003814e+00 1.218509e-01 3.007479e+00 0.000000e+00 0.000000e+00
1.525903e+01 1.000000e-16 1.000000e-16 5.103494e-03 0.000000e+00 -3.156353e+01 0.000000e+00 0.000000e+00 0.000000e+00 0.000000e+00 0.000000e+00 0.000000e+00 0.000000e+00 0.000000e+00 0.000000e+00 0.000000e+00 3.003996e+00 1.032330e-01 3.007100e+00 0.000000e+00 1.331560e+00

File: ui_Scan(1)2021_10_13T14_14_53.xdi
# XDI/1.0 SED_XAFS/0.9
# Column.1: energy eV
# Column.2: Ionization Chamber (IC) number 1
# Column.3: Ionization Chamber (IC) number 2
# Column.4: Ionization Chamber (IC) number 3
# Column.5: Transmission (log(IC1 current/ IC2 current))
# Column.6: Transmission Reference (log(IC2 current/IC3 current))
# Column.7: KETEK-If
# Column.8: KETEK-FLUOR
# Column.9: KETEK-ROI_0[c/s]
# Column.10: KETEK-ROI_1[c/s]
# Column.11: KETEK-ROI_2[c/s]
# Column.12: KETEK-ROI_3[c/s]
# Column.13: KETEK-ROI_4[c/s]
# Column.14: KETEK-ROI_5[c/s]
# Column.15: KETEK-ROI_6[c/s]
# Column.16: KETEK-ROI_7[c/s]
# Column.17: KETEK-e-time[sec]
# Column.18: KETEK-DEADTIME[%]
# Column.19: KETEK-INT_TIME[sec]
# Column.20: KETEK-OCR
# Column.21: KETEK-ICR
# Base.file_name: ui
# Scan.edge_energy: 8980.0
# Mono.name: Si 111
# Mono.d_spacing: 3.13553
# Beamline.name: 13ID
# Beamline.collimation: slits
# Beamline.focusing: no
# Beamline.harmonic_rejection: rhodium-coated mirror
# Facility.name: SESAME Synchrotron
# Facility.energy: 2.50 GeV
# Facility.xray_source: SESAME Bending Magnet
# Scan.start_time: 2021-10-13T14:15:08
# Detector.IC1: 15cm  g
# Detector.IC2: 30cm  g
# Detector.IC3: 15cm  g
# Sample.name: Cu
# Sample.prep: Cu metal foil
# ///
# Cu foil Room Temperature
# measured at beamline 08-BM XAFS/XRF Beamline
#----
#(1)ENERGY-RBK   (2)IC1[V]   (3)IC2[V]   (4)IC3[V]   (5)TRANS   (6)TransRef   (7)KETEK-If   (8)KETEK-FLUOR   (9)KETEK-ROI_0[c/s]   (10)KETEK-ROI_1[c/s]   (11)KETEK-ROI_2[c/s]   (12)KETEK-ROI_3[c/s]   (13)KETEK-ROI_4[c/s]   (14)KETEK-ROI_5[c/s]   (15)KETEK-ROI_6[c/s]   (16)KETEK-ROI_7[c/s]   (17)KETEK-e-time[sec]   (18)KETEK-DEADTIME[%]   (19)KETEK-INT_TIME[sec]   (20)KETEK-OCR   (21)KETEK-ICR
1.524997e+01 1.000000e-16 1.000000e-16 5.075363e-03 0.000000e+00 -3.155800e+01 0.000000e+00 0.000000e+00 0.000000e+00 0.000000e+00 0.000000e+00 0.000000e+00 0.000000e+00 0.000000e+00 0.000000e+00 0.000000e+00 9.247674e-01 4.185669e-01 9.286544e-01 0.000000e+00 0.000000e+00
1.525091e+01 1.000000e-16 1.000000e-16 5.105878e-03 0.000000e+00 -3.156400e+01 0.000000e+00 0.000000e+00 0.000000e+00 0.000000e+00 0.000000e+00 0.000000e+00 0.000000e+00 0.000000e+00 0.000000e+00 0.000000e+00 1.006326e+00 1.153601e-01 1.007489e+00 0.000000e+00 0.000000e+00
1.525204e+01 1.000000e-16 1.000000e-16 5.130672e-03 0.000000e+00 -3.156884e+01 0.000000e+00 0.000000e+00 0.000000e+00 0.000000e+00 0.000000e+00 0.000000e+00 0.000000e+00 0.000000e+00 0.000000e+00 0.000000e+00 1.006476e+00 9.408554e-02 1.007424e+00 0.000000e+00 0.000000e+00
1.525300e+01 1.000000e-16 1.000000e-16 5.126857e-03 0.000000e+00 -3.156810e+01 0.000000e+00 0.000000e+00 0.000000e+00 0.000000e+00 0.000000e+00 0.000000e+00 0.000000e+00 0.000000e+00 0.000000e+00 0.000000e+00 1.006645e+00 1.027627e-01 1.007680e+00 0.000000e+00 0.000000e+00
1.525399e+01 1.000000e-16 1.000000e-16 5.055576e-03 0.000000e+00 -3.155410e+01 0.000000e+00 0.000000e+00 0.000000e+00 0.000000e+00 0.000000e+00 0.000000e+00 0.000000e+00 0.000000e+00 0.000000e+00 0.000000e+00 1.006519e+00 1.028708e-01 1.007555e+00 0.000000e+00 0.000000e+00
1.525504e+01 1.000000e-16 1.000000e-16 5.000029e-03 0.000000e+00 -3.154305e+01 0.000000e+00 0.000000e+00 0.000000e+00 0.000000e+00 0.000000e+00 0.000000e+00 0.000000e+00 0.000000e+00 0.000000e+00 0.000000e+00 1.006598e+00 1.151070e-01 1.007758e+00 0.000000e+00 0.000000e+00
1.525600e+01 1.000000e-16 1.000000e-16 5.098488e-03 0.000000e+00 -3.156255e+01 0.000000e+00 0.000000e+00 0.000000e+00 0.000000e+00 0.000000e+00 0.000000e+00 0.000000e+00 0.000000e+00 0.000000e+00 0.000000e+00 1.006577e+00 1.153631e-01 1.007740e+00 0.000000e+00 0.000000e+00
1.525699e+01 1.000000e-16 1.000000e-16 5.118513e-03 0.000000e+00 -3.156647e+01 0.000000e+00 0.000000e+00 0.000000e+00 0.000000e+00 0.000000e+00 0.000000e+00 0.000000e+00 0.000000e+00 0.000000e+00 0.000000e+00 1.006202e+00 1.161676e-01 1.007372e+00 0.000000e+00 0.000000e+00
1.525803e+01 1.000000e-16 1.000000e-16 5.090144e-03 0.000000e+00 -3.156091e+01 0.000000e+00 0.000000e+00 0.000000e+00 0.000000e+00 0.000000e+00 0.000000e+00 0.000000e+00 0.000000e+00 0.000000e+00 0.000000e+00 1.006301e+00 1.176155e-01 1.007486e+00 0.000000e+00 0.000000e+00
1.525903e+01 1.000000e-16 1.000000e-16 5.086330e-03 0.000000e+00 -3.156016e+01 0.000000e+00 0.000000e+00 0.000000e+00 0.000000e+00 0.000000e+00 0.000000e+00 0.000000e+00 0.000000e+00 0.000000e+00 0.000000e+00 1.006595e+00 1.150756e-01 1.007755e+00 0.000000e+00 0.000000e+00
1.526002e+01 1.000000e-16 1.000000e-16 5.094673e-03 0.000000e+00 -3.156180e+01 0.000000e+00 0.000000e+00 0.000000e+00 0.000000e+00 0.000000e+00 0.000000e+00 0.000000e+00 0.000000e+00 0.000000e+00 0.000000e+00 1.006494e+00 9.979561e-02 1.007499e+00 0.000000e+00 0.000000e+00

File: uiee_Scan(1)2021_10_13T14_20_08.xdi
# XDI/1.0 SED_XAFS/0.9
# Column.1: energy eV
# Column.2: Ionization Chamber (IC) number 1
# Column.3: Ionization Chamber (IC) number 2
# Column.4: Ionization Chamber (IC) number 3
# Column.5: Transmission (log(IC1 current/ IC2 current))
# Column.6: Transmission Reference (log(IC2 current/IC3 current))
# Column.7: KETEK-If
# Column.8: KETEK-FLUOR
# Column.9: KETEK-ROI_0[c/s]
# Column.10: KETEK-ROI_1[c/s]
# Column.11: KETEK-ROI_2[c/s]
# Column.12: KETEK-ROI_3[c/s]
# Column.13: KETEK-ROI_4[c/s]
# Column.14: KETEK-ROI_5[c/s]
# Column.15: KETEK-ROI_6[c/s]
# Column.16: KETEK-ROI_7[c/s]
# Column.17: KETEK-e-time[sec]
# Column.18: KETEK-DEADTIME[%]
# Column.19: KETEK-INT_TIME[sec]
# Column.20: KETEK-OCR
# Column.21: KETEK-ICR
# Base.file_name: uiee
# Scan.edge_energy: 8980.0
# Mono.name: Si 111
# Mono.d_spacing: 3.13553
# Beamline.name: 13ID
# Beamline.collimation: slits
# Beamline.focusing: no
# Beamline.harmonic_rejection: rhodium-coated mirror
# Facility.name: SESAME Synchrotron
# Facility.energy: 2.50 GeV
# Facility.xray_source: SESAME Bending Magnet
# Scan.start_time: 2021-10-13T14:20:23
# Detector.IC1: 15cm  g
# Detector.IC2: 30cm  g
# Detector.IC3: 15cm  g
# Sample.name: Cu
# Sample.prep: Cu metal foil
# ///
# Cu foil Room Temperature
# measured at beamline 08-BM XAFS/XRF Beamline
#----
#(1)ENERGY-RBK   (2)IC1[V]   (3)IC2[V]   (4)IC3[V]   (5)TRANS   (6)TransRef   (7)KETEK-If   (8)KETEK-FLUOR   (9)KETEK-ROI_0[c/s]   (10)KETEK-ROI_1[c/s]   (11)KETEK-ROI_2[c/s]   (12)KETEK-ROI_3[c/s]   (13)KETEK-ROI_4[c/s]   (14)KETEK-ROI_5[c/s]   (15)KETEK-ROI_6[c/s]   (16)KETEK-ROI_7[c/s]   (17)KETEK-e-time[sec]   (18)KETEK-DEADTIME[%]   (19)KETEK-INT_TIME[sec]   (20)KETEK-OCR   (21)KETEK-ICR
1.524997e+01 1.000000e-16 1.000000e-16 5.004796e-03 0.000000e+00 -3.154400e+01 0.000000e+00 0.000000e+00 0.000000e+00 0.000000e+00 0.000000e+00 0.000000e+00 0.000000e+00 0.000000e+00 0.000000e+00 0.000000e+00 9.242310e-01 4.237870e-01 9.281645e-01 0.000000e+00 0.000000e+00
1.525096e+01 1.000000e-16 1.000000e-16 5.109216e-03 0.000000e+00 -3.156465e+01 0.000000e+00 0.000000e+00 0.000000e+00 0.000000e+00 0.000000e+00 0.000000e+00 0.000000e+00 0.000000e+00 0.000000e+00 0.000000e+00 1.006622e+00 9.978287e-02 1.007628e+00 0.000000e+00 0.000000e+00
1.525201e+01 1.000000e-16 1.000000e-16 5.042702e-03 0.000000e+00 -3.155155e+01 0.000000e+00 0.000000e+00 0.000000e+00 0.000000e+00 0.000000e+00 0.000000e+00 0.000000e+00 0.000000e+00 0.000000e+00 0.000000e+00 1.006244e+00 1.003917e-01 1.007255e+00 0.000000e+00 0.000000e+00
1.525300e+01 1.000000e-16 1.000000e-16 5.142353e-03 0.000000e+00 -3.157112e+01 0.000000e+00 0.000000e+00 0.000000e+00 0.000000e+00 0.000000e+00 0.000000e+00 0.000000e+00 0.000000e+00 0.000000e+00 0.000000e+00 1.006425e+00 1.006909e-01 1.007439e+00 0.000000e+00 0.000000e+00
1.525399e+01 1.000000e-16 1.000000e-16 4.982387e-03 0.000000e+00 -3.153952e+01 0.000000e+00 0.000000e+00 0.000000e+00 0.000000e+00 0.000000e+00 0.000000e+00 0.000000e+00 0.000000e+00 0.000000e+00 0.000000e+00 1.006390e+00 1.014877e-01 1.007412e+00 0.000000e+00 0.000000e+00
1.525501e+01 1.000000e-16 1.000000e-16 5.184789e-03 0.000000e+00 -3.157934e+01 0.000000e+00 0.000000e+00 0.000000e+00 0.000000e+00 0.000000e+00 0.000000e+00 0.000000e+00 0.000000e+00 0.000000e+00 0.000000e+00 1.006630e+00 1.054607e-01 1.007693e+00 0.000000e+00 0.000000e+00
1.525600e+01 1.000000e-16 1.000000e-16 5.093720e-03 0.000000e+00 -3.156161e+01 0.000000e+00 0.000000e+00 0.000000e+00 0.000000e+00 0.000000e+00 0.000000e+00 0.000000e+00 0.000000e+00 0.000000e+00 0.000000e+00 1.006647e+00 1.005418e-01 1.007660e+00 0.000000e+00 0.000000e+00
1.525699e+01 1.000000e-16 1.000000e-16 5.175491e-03 0.000000e+00 -3.157754e+01 0.000000e+00 0.000000e+00 0.000000e+00 0.000000e+00 0.000000e+00 0.000000e+00 0.000000e+00 0.000000e+00 0.000000e+00 0.000000e+00 1.006568e+00 1.179966e-01 1.007757e+00 0.000000e+00 0.000000e+00
1.525803e+01 1.000000e-16 1.000000e-16 5.246534e-03 0.000000e+00 -3.159117e+01 0.000000e+00 0.000000e+00 0.000000e+00 0.000000e+00 0.000000e+00 0.000000e+00 0.000000e+00 0.000000e+00 0.000000e+00 0.000000e+00 1.006430e+00 1.153165e-01 1.007592e+00 0.000000e+00 0.000000e+00
1.525903e+01 1.000000e-16 1.000000e-16 5.060821e-03 0.000000e+00 -3.155513e+01 0.000000e+00 0.000000e+00 0.000000e+00 0.000000e+00 0.000000e+00 0.000000e+00 0.000000e+00 0.000000e+00 0.000000e+00 0.000000e+00 1.006306e+00 1.002903e-01 1.007316e+00 0.000000e+00 0.000000e+00
1.526002e+01 1.000000e-16 1.000000e-16 5.045802e-03 0.000000e+00 -3.155216e+01 0.000000e+00 0.000000e+00 0.000000e+00 0.000000e+00 0.000000e+00 0.000000e+00 0.000000e+00 0.000000e+00 0.000000e+00 0.000000e+00 1.921289e+00 3.522509e-01 1.928080e+00 0.000000e+00 0.000000e+00
1.527002e+01 1.000000e-16 1.000000e-16 5.168578e-03 0.000000e+00 -3.157620e+01 0.000000e+00 0.000000e+00 0.000000e+00 0.000000e+00 0.000000e+00 0.000000e+00 0.000000e+00 0.000000e+00 0.000000e+00 0.000000e+00 9.250288e-01 4.362843e-01 9.290822e-01 0.000000e+00 0.000000e+00

File: yy_Scan(1)2021_10_19T14_06_38.xdi
# XDI/1.0 SED_XAFS/0.9
# Column.1: energy eV
# Column.2: Ionization Chamber (IC) number 1
# Column.3: Ionization Chamber (IC) number 2
# Column.4: Ionization Chamber (IC) number 3
# Column.5: Transmission (log(IC1 current/ IC2 current))
# Column.6: Transmission Reference (log(IC2 current/IC3 current))
# Base.file_name: yy
# Element.edge: K
# Mono.name: Si 111
# Mono.d_spacing: 3.13553
# Mono.settling_time: 0.5
# Beamline.name: XAFS/XRF Beamline (08-BM)
# Beamline.collimation: slits
# Beamline.focusing: no
# Beamline.harmonic_rejection: mirror coating VCM: Si, VFM: Si
# Facility.name: SESAME Synchrotron-light
# Facility.energy: 2.50 GeV
# Facility.current: -0.0756857
# Facility.xray_source: SESAME Bending Magnet
# Scan.start_time: 2021-10-19T14:06:38
# Scan.end_time: 2021-10-19T14:06:43
# Scan.edge_energy: 3500
# Scan.number: 1/1 -- intervals: 2, samples: 1
# Detector.IC1: 15cm  n
# Detector.IC2: 30cm  nn
# Detector.IC3: 15cm  nn
# Element.symbol: Cu
# Sample.stoichiometry: NONE
# Sample.prep: gdgf
# ///
# Experiment comments and remarks: NONE
# User comments and remarks: NONE
#----
#(1)energy   (2)IC1[V]   (3)IC2[V]   (4)IC3[V]   (5)TRANS   (6)TransRef
1.524997e+01  1.000000e-16  1.000000e-16  4.988347e-03  0.000000e+00  -3.154071e+01
1.525093e+01  1.000000e-16  1.000000e-16  4.993116e-03  0.000000e+00  -3.154167e+01
1.525201e+01  1.000000e-16  1.000000e-16  5.031736e-03  0.000000e+00  -3.154937e+01
1.525300e+01  1.000000e-16  1.000000e-16  5.063682e-03  0.000000e+00  -3.155570e+01
1.525399e+01  1.000000e-16  1.000000e-16  5.052000e-03  0.000000e+00  -3.155339e+01
1.525501e+01  1.000000e-16  1.000000e-16  5.117798e-03  0.000000e+00  -3.156633e+01
1.525600e+01  1.000000e-16  1.000000e-16  4.892510e-03  0.000000e+00  -3.152131e+01
1.525699e+01  1.000000e-16  1.000000e-16  5.027921e-03  0.000000e+00  -3.154861e+01
1.525801e+01  1.000000e-16  1.000000e-16  5.025299e-03  0.000000e+00  -3.154809e+01
1.525903e+01  1.000000e-16  1.000000e-16  5.038411e-03  0.000000e+00  -3.155070e+01
1.526002e+01  1.000000e-16  1.000000e-16  4.939952e-03  0.000000e+00  -3.153096e+01
1.526101e+01  1.000000e-16  1.000000e-16  5.051047e-03  0.000000e+00  -3.155320e+01
1.526203e+01  1.000000e-16  1.000000e-16  5.077509e-03  0.000000e+00  -3.155843e+01
1.526299e+01  1.000000e-16  1.000000e-16  5.094673e-03  0.000000e+00  -3.156180e+01
1.526404e+01  1.000000e-16  1.000000e-16  5.094673e-03  0.000000e+00  -3.156180e+01
1.526500e+01  1.000000e-16  1.000000e-16  5.159996e-03  0.000000e+00  -3.157454e+01
1.526599e+01  1.000000e-16  1.000000e-16  4.948535e-03  0.000000e+00  -3.153270e+01
1.526701e+01  1.000000e-16  1.000000e-16  5.065112e-03  0.000000e+00  -3.155598e+01
1.526800e+01  1.000000e-16  1.000000e-16  5.068927e-03  0.000000e+00  -3.155674e+01
1.526902e+01  1.000000e-16  1.000000e-16  5.098726e-03  0.000000e+00  -3.156260e+01