Folder: HESEBScanTool/tmp/SEM[1]/XAFS/20185101/data/csv (part 2)

File: nn_Scan(1)2021_10_14T11_12_29.xdi
# XDI/1.0 SED_XAFS/0.9
# Column.1: energy eV
# Column.2: Ionization Chamber (IC) number 1
# Column.3: Ionization Chamber (IC) number 2
# Column.4: Ionization Chamber (IC) number 3
# Column.5: Transmission (log(IC1 current/ IC2 current))
# Column.6: Transmission Reference (log(IC2 current/IC3 current))
# Column.7: KETEK-If
# Column.8: KETEK-FLUOR
# Column.9: KETEK-ROI_0[c/s]
# Column.10: KETEK-ROI_1[c/s]
# Column.11: KETEK-ROI_2[c/s]
# Column.12: KETEK-e-time[sec]
# Column.13: KETEK-DEADTIME[%]
# Column.14: KETEK-INT_TIME[sec]
# Column.15: KETEK-OCR
# Column.16: KETEK-ICR
# Base.file_name: nn
# Element.edge: K
# Mono.name: Si 111
# Mono.d_spacing: 3.13553
# Beamline.name: XAFS/XRF Beamline (08-BM)
# Beamline.collimation: slits
# Beamline.focusing: no
# Beamline.harmonic_rejection: rhodium-coated mirror
# Facility.name: SESAME Synchrotron-light
# Facility.energy: 2.50 GeV
# Facility.current: <PV 'SRC01-DI-DCCT1:getDcctCurrent', count=1, type=time_double, access=read-only>
# Facility.xray_source: SESAME Bending Magnet
# Scan.start_time: 2021-10-14T11:12:35
# Detector.IC1: 15cm  N2
# Detector.IC2: 30cm  N2
# Detector.IC3: 15cm  N2
# Element.symbol: Fe
# Sample.prep: Cu metal foil
# ///
# Cu foil Room Temperature
# measured at beamline 08-BM XAFS/XRF Beamline
#----
#(1)energy   (2)IC1[V]   (3)IC2[V]   (4)IC3[V]   (5)TRANS   (6)TransRef   (7)KETEK-If   (8)KETEK-FLUOR   (9)KETEK-ROI_0[c/s]   (10)KETEK-ROI_1[c/s]   (11)KETEK-ROI_2[c/s]   (12)KETEK-e-time[sec]   (13)KETEK-DEADTIME[%]   (14)KETEK-INT_TIME[sec]   (15)KETEK-OCR   (16)KETEK-ICR
1.524994e+01  1.000000e-16  1.000000e-16  5.111123e-03  0.000000e+00  -3.156503e+01  0.000000e+00  0.000000e+00  0.000000e+00  0.000000e+00  0.000000e+00  4.749114e-01  4.585045e-01  4.770989e-01  0.000000e+00  0.000000e+00
1.525093e+01  1.000000e-16  1.000000e-16  5.121136e-03  0.000000e+00  -3.156698e+01  0.000000e+00  0.000000e+00  0.000000e+00  0.000000e+00  0.000000e+00  5.029389e-01  1.651544e-01  5.037709e-01  0.000000e+00  0.000000e+00
1.525201e+01  1.000000e-16  1.000000e-16  5.065350e-03  0.000000e+00  -3.155603e+01  0.000000e+00  0.000000e+00  0.000000e+00  0.000000e+00  0.000000e+00  5.031501e-01  1.125711e-01  5.037171e-01  0.000000e+00  0.000000e+00
1.525300e+01  1.000000e-16  1.000000e-16  5.049378e-03  0.000000e+00  -3.155287e+01  0.000000e+00  0.000000e+00  0.000000e+00  0.000000e+00  0.000000e+00  5.032534e-01  1.112791e-01  5.038141e-01  0.000000e+00  0.000000e+00
1.525402e+01  1.000000e-16  1.000000e-16  5.150936e-03  0.000000e+00  -3.157278e+01  0.000000e+00  0.000000e+00  0.000000e+00  0.000000e+00  0.000000e+00  5.029517e-01  9.718717e-02  5.034410e-01  0.000000e+00  0.000000e+00
1.525501e+01  1.000000e-16  1.000000e-16  4.966176e-03  0.000000e+00  -3.153626e+01  0.000000e+00  0.000000e+00  0.000000e+00  0.000000e+00  0.000000e+00  5.029082e-01  9.484578e-02  5.033856e-01  0.000000e+00  0.000000e+00
1.525600e+01  1.000000e-16  1.000000e-16  5.037219e-03  0.000000e+00  -3.155046e+01  0.000000e+00  0.000000e+00  0.000000e+00  0.000000e+00  0.000000e+00  5.031462e-01  1.131431e-01  5.037162e-01  0.000000e+00  0.000000e+00
1.525699e+01  1.000000e-16  1.000000e-16  5.124711e-03  0.000000e+00  -3.156768e+01  0.000000e+00  0.000000e+00  0.000000e+00  0.000000e+00  0.000000e+00  5.031091e-01  9.633152e-02  5.035942e-01  0.000000e+00  0.000000e+00
1.525801e+01  1.000000e-16  1.000000e-16  5.025538e-03  0.000000e+00  -3.154814e+01  0.000000e+00  0.000000e+00  0.000000e+00  0.000000e+00  0.000000e+00  5.032198e-01  1.143955e-01  5.037962e-01  0.000000e+00  0.000000e+00
1.525903e+01  1.000000e-16  1.000000e-16  5.009803e-03  0.000000e+00  -3.154500e+01  0.000000e+00  0.000000e+00  0.000000e+00  0.000000e+00  0.000000e+00  5.031190e-01  1.120704e-01  5.036835e-01  0.000000e+00  0.000000e+00

File: nn_Scan(1)2021_10_14T11_31_46.xdi
# XDI/1.0 SED_XAFS/0.9
# Column.1: energy eV
# Column.2: Ionization Chamber (IC) number 1
# Column.3: Ionization Chamber (IC) number 2
# Column.4: Ionization Chamber (IC) number 3
# Column.5: Transmission (log(IC1 current/ IC2 current))
# Column.6: Transmission Reference (log(IC2 current/IC3 current))
# Column.7: KETEK-If
# Column.8: KETEK-FLUOR
# Column.9: KETEK-ROI_0[c/s]
# Column.10: KETEK-ROI_1[c/s]
# Column.11: KETEK-ROI_2[c/s]
# Column.12: KETEK-e-time[sec]
# Column.13: KETEK-DEADTIME[%]
# Column.14: KETEK-INT_TIME[sec]
# Column.15: KETEK-OCR
# Column.16: KETEK-ICR
# Base.file_name: nn
# Element.edge: K
# Mono.name: Si 111
# Mono.d_spacing: 3.13553
# Beamline.name: XAFS/XRF Beamline (08-BM)
# Beamline.collimation: slits
# Beamline.focusing: no
# Beamline.harmonic_rejection: rhodium-coated mirror
# Facility.name: SESAME Synchrotron-light
# Facility.energy: 2.50 GeV
# Facility.current: -0.0588876
# Facility.xray_source: SESAME Bending Magnet
# Scan.start_time: 2021-10-14T11:31:53
# Detector.IC1: 15cm  N2
# Detector.IC2: 30cm  N2
# Detector.IC3: 15cm  N2
# Element.symbol: Fe
# Sample.prep: Cu metal foil
# ///
# Cu foil Room Temperature
# measured at beamline 08-BM XAFS/XRF Beamline
#----
#(1)energy   (2)IC1[V]   (3)IC2[V]   (4)IC3[V]   (5)TRANS   (6)TransRef   (7)KETEK-If   (8)KETEK-FLUOR   (9)KETEK-ROI_0[c/s]   (10)KETEK-ROI_1[c/s]   (11)KETEK-ROI_2[c/s]   (12)KETEK-e-time[sec]   (13)KETEK-DEADTIME[%]   (14)KETEK-INT_TIME[sec]   (15)KETEK-OCR   (16)KETEK-ICR
1.524997e+01  1.000000e-16  1.000000e-16  5.113508e-03  0.000000e+00  -3.156549e+01  0.000000e+00  0.000000e+00  0.000000e+00  0.000000e+00  0.000000e+00  4.371821e-01  4.642400e-01  4.392211e-01  0.000000e+00  0.000000e+00
1.525091e+01  1.000000e-16  1.000000e-16  5.009565e-03  0.000000e+00  -3.154496e+01  0.000000e+00  0.000000e+00  0.000000e+00  0.000000e+00  0.000000e+00  5.029085e-01  1.794318e-01  5.038125e-01  0.000000e+00  0.000000e+00
1.525204e+01  1.000000e-16  1.000000e-16  5.058437e-03  0.000000e+00  -3.155466e+01  0.000000e+00  0.000000e+00  0.000000e+00  0.000000e+00  0.000000e+00  5.032006e-01  9.720260e-02  5.036902e-01  0.000000e+00  0.000000e+00
1.525300e+01  1.000000e-16  1.000000e-16  5.105163e-03  0.000000e+00  -3.156386e+01  0.000000e+00  0.000000e+00  0.000000e+00  0.000000e+00  0.000000e+00  5.028989e-01  1.126908e-01  5.034662e-01  0.000000e+00  0.000000e+00
1.525399e+01  1.000000e-16  1.000000e-16  5.024584e-03  0.000000e+00  -3.154795e+01  0.000000e+00  0.000000e+00  0.000000e+00  0.000000e+00  0.000000e+00  5.029952e-01  1.126057e-01  5.035622e-01  0.000000e+00  0.000000e+00
1.525504e+01  1.000000e-16  1.000000e-16  5.057960e-03  0.000000e+00  -3.155457e+01  0.000000e+00  0.000000e+00  0.000000e+00  0.000000e+00  0.000000e+00  5.029354e-01  1.128096e-01  5.035034e-01  0.000000e+00  0.000000e+00
1.525600e+01  1.000000e-16  1.000000e-16  4.991685e-03  0.000000e+00  -3.154138e+01  0.000000e+00  0.000000e+00  0.000000e+00  0.000000e+00  0.000000e+00  5.029946e-01  1.140023e-01  5.035686e-01  0.000000e+00  0.000000e+00
1.525699e+01  1.000000e-16  1.000000e-16  5.084422e-03  0.000000e+00  -3.155979e+01  0.000000e+00  0.000000e+00  0.000000e+00  0.000000e+00  0.000000e+00  5.030550e-01  9.259589e-02  5.035213e-01  0.000000e+00  0.000000e+00
1.525803e+01  1.000000e-16  1.000000e-16  5.084422e-03  0.000000e+00  -3.155979e+01  0.000000e+00  0.000000e+00  0.000000e+00  0.000000e+00  0.000000e+00  5.029994e-01  9.108209e-02  5.034579e-01  0.000000e+00  0.000000e+00
1.525903e+01  1.000000e-16  1.000000e-16  5.068211e-03  0.000000e+00  -3.155659e+01  0.000000e+00  0.000000e+00  0.000000e+00  0.000000e+00  0.000000e+00  5.032019e-01  9.428268e-02  5.036768e-01  0.000000e+00  0.000000e+00

File: nn_Scan(1)2021_10_14T11_53_52.xdi
# XDI/1.0 SED_XAFS/0.9
# Column.1: energy eV
# Column.2: Ionization Chamber (IC) number 1
# Column.3: Ionization Chamber (IC) number 2
# Column.4: Ionization Chamber (IC) number 3
# Column.5: Transmission (log(IC1 current/ IC2 current))
# Column.6: Transmission Reference (log(IC2 current/IC3 current))
# Column.7: KETEK-If
# Column.8: KETEK-FLUOR
# Column.9: KETEK-ROI_0[c/s]
# Column.10: KETEK-ROI_1[c/s]
# Column.11: KETEK-ROI_2[c/s]
# Column.12: KETEK-e-time[sec]
# Column.13: KETEK-DEADTIME[%]
# Column.14: KETEK-INT_TIME[sec]
# Column.15: KETEK-OCR
# Column.16: KETEK-ICR
# Base.file_name: nn
# Element.edge: K
# Mono.name: Si 111
# Mono.d_spacing: 3.13553
# Beamline.name: XAFS/XRF Beamline (08-BM)
# Beamline.collimation: slits
# Beamline.focusing: no
# Beamline.harmonic_rejection: rhodium-coated mirror
# Facility.name: SESAME Synchrotron-light
# Facility.energy: 2.50 GeV
# Facility.current: -0.0578537
# Facility.xray_source: SESAME Bending Magnet
# Scan.start_time: 2021-10-14T11:53:59
# Detector.IC1: 15cm  N2
# Detector.IC2: 30cm  N2
# Detector.IC3: 15cm  N2
# Element.symbol: Fe
# Sample.prep: Cu metal foil
# ///
# Cu foil Room Temperature
# measured at beamline 08-BM XAFS/XRF Beamline
#----
#(1)energy   (2)IC1[V]   (3)IC2[V]   (4)IC3[V]   (5)TRANS   (6)TransRef   (7)KETEK-If   (8)KETEK-FLUOR   (9)KETEK-ROI_0[c/s]   (10)KETEK-ROI_1[c/s]   (11)KETEK-ROI_2[c/s]   (12)KETEK-e-time[sec]   (13)KETEK-DEADTIME[%]   (14)KETEK-INT_TIME[sec]   (15)KETEK-OCR   (16)KETEK-ICR
1.524997e+01  1.000000e-16  1.000000e-16  4.900616e-03  0.000000e+00  -3.152297e+01  0.000000e+00  0.000000e+00  0.000000e+00  0.000000e+00  0.000000e+00  4.868765e-01  4.564056e-01  4.891088e-01  0.000000e+00  0.000000e+00
1.525099e+01  1.000000e-16  1.000000e-16  5.082992e-03  0.000000e+00  -3.155951e+01  0.000000e+00  0.000000e+00  0.000000e+00  0.000000e+00  0.000000e+00  5.030291e-01  1.348082e-01  5.037082e-01  0.000000e+00  0.000000e+00
1.525204e+01  1.000000e-16  1.000000e-16  5.183835e-03  0.000000e+00  -3.157915e+01  0.000000e+00  0.000000e+00  0.000000e+00  0.000000e+00  0.000000e+00  5.029389e-01  9.750715e-02  5.034298e-01  0.000000e+00  0.000000e+00
1.525300e+01  1.000000e-16  1.000000e-16  5.065589e-03  0.000000e+00  -3.155608e+01  0.000000e+00  0.000000e+00  0.000000e+00  0.000000e+00  0.000000e+00  5.028803e-01  9.834411e-02  5.033754e-01  0.000000e+00  0.000000e+00
1.525399e+01  1.000000e-16  1.000000e-16  5.149029e-03  0.000000e+00  -3.157241e+01  0.000000e+00  0.000000e+00  0.000000e+00  0.000000e+00  0.000000e+00  5.032470e-01  9.865328e-02  5.037440e-01  0.000000e+00  0.000000e+00
1.525501e+01  1.000000e-16  1.000000e-16  5.071549e-03  0.000000e+00  -3.155725e+01  0.000000e+00  0.000000e+00  0.000000e+00  0.000000e+00  0.000000e+00  5.029629e-01  1.126765e-01  5.035302e-01  0.000000e+00  0.000000e+00
1.525600e+01  1.000000e-16  1.000000e-16  5.149029e-03  0.000000e+00  -3.157241e+01  0.000000e+00  0.000000e+00  0.000000e+00  0.000000e+00  0.000000e+00  5.032461e-01  1.140089e-01  5.038205e-01  0.000000e+00  0.000000e+00
1.525699e+01  1.000000e-16  1.000000e-16  5.086807e-03  0.000000e+00  -3.156026e+01  0.000000e+00  0.000000e+00  0.000000e+00  0.000000e+00  0.000000e+00  5.030579e-01  9.843639e-02  5.035536e-01  0.000000e+00  0.000000e+00
1.525803e+01  1.000000e-16  1.000000e-16  5.275142e-03  0.000000e+00  -3.159661e+01  0.000000e+00  0.000000e+00  0.000000e+00  0.000000e+00  0.000000e+00  5.030576e-01  1.143054e-01  5.036333e-01  0.000000e+00  0.000000e+00
1.525900e+01  1.000000e-16  1.000000e-16  5.122328e-03  0.000000e+00  -3.156722e+01  0.000000e+00  0.000000e+00  0.000000e+00  0.000000e+00  0.000000e+00  5.031629e-01  1.133932e-01  5.037341e-01  0.000000e+00  0.000000e+00

File: nn_Scan(1)2021_10_14T11_55_46.xdi
# XDI/1.0 SED_XAFS/0.9
# Column.1: energy eV
# Column.2: Ionization Chamber (IC) number 1
# Column.3: Ionization Chamber (IC) number 2
# Column.4: Ionization Chamber (IC) number 3
# Column.5: Transmission (log(IC1 current/ IC2 current))
# Column.6: Transmission Reference (log(IC2 current/IC3 current))
# Column.7: KETEK-If
# Column.8: KETEK-FLUOR
# Column.9: KETEK-ROI_0[c/s]
# Column.10: KETEK-ROI_1[c/s]
# Column.11: KETEK-ROI_2[c/s]
# Column.12: KETEK-e-time[sec]
# Column.13: KETEK-DEADTIME[%]
# Column.14: KETEK-INT_TIME[sec]
# Column.15: KETEK-OCR
# Column.16: KETEK-ICR
# Base.file_name: nn
# Element.edge: K
# Mono.name: Si 111
# Mono.d_spacing: 3.13553
# Beamline.name: XAFS/XRF Beamline (08-BM)
# Beamline.collimation: slits
# Beamline.focusing: no
# Beamline.harmonic_rejection: mirror coating VCM: Si, VFM: Pt
# Facility.name: SESAME Synchrotron-light
# Facility.energy: 2.50 GeV
# Facility.current: -0.0578734
# Facility.xray_source: SESAME Bending Magnet
# Scan.start_time: 2021-10-14T11:55:52
# Detector.IC1: 15cm  N2
# Detector.IC2: 30cm  N2
# Detector.IC3: 15cm  N2
# Element.symbol: Fe
# Sample.prep: Cu metal foil
# ///
# Cu foil Room Temperature
# measured at beamline 08-BM XAFS/XRF Beamline
#----
#(1)energy   (2)IC1[V]   (3)IC2[V]   (4)IC3[V]   (5)TRANS   (6)TransRef   (7)KETEK-If   (8)KETEK-FLUOR   (9)KETEK-ROI_0[c/s]   (10)KETEK-ROI_1[c/s]   (11)KETEK-ROI_2[c/s]   (12)KETEK-e-time[sec]   (13)KETEK-DEADTIME[%]   (14)KETEK-INT_TIME[sec]   (15)KETEK-OCR   (16)KETEK-ICR
1.524994e+01  1.000000e-16  1.000000e-16  5.235329e-03  0.000000e+00  -3.158904e+01  0.000000e+00  0.000000e+00  0.000000e+00  0.000000e+00  0.000000e+00  4.384726e-01  4.649044e-01  4.405206e-01  0.000000e+00  0.000000e+00
1.525091e+01  1.000000e-16  1.000000e-16  5.056768e-03  0.000000e+00  -3.155433e+01  0.000000e+00  0.000000e+00  0.000000e+00  0.000000e+00  0.000000e+00  5.029408e-01  1.711145e-01  5.038029e-01  0.000000e+00  0.000000e+00
1.525204e+01  1.000000e-16  1.000000e-16  5.109931e-03  0.000000e+00  -3.156479e+01  0.000000e+00  0.000000e+00  0.000000e+00  0.000000e+00  0.000000e+00  5.032976e-01  1.130457e-01  5.038672e-01  0.000000e+00  0.000000e+00
1.525300e+01  1.000000e-16  1.000000e-16  5.070119e-03  0.000000e+00  -3.155697e+01  0.000000e+00  0.000000e+00  0.000000e+00  0.000000e+00  0.000000e+00  5.028733e-01  9.732932e-02  5.033632e-01  0.000000e+00  0.000000e+00
1.525399e+01  1.000000e-16  1.000000e-16  5.128765e-03  0.000000e+00  -3.156847e+01  0.000000e+00  0.000000e+00  0.000000e+00  0.000000e+00  0.000000e+00  5.029091e-01  1.123076e-01  5.034746e-01  0.000000e+00  0.000000e+00
1.525501e+01  1.000000e-16  1.000000e-16  5.234138e-03  0.000000e+00  -3.158881e+01  0.000000e+00  0.000000e+00  0.000000e+00  0.000000e+00  0.000000e+00  5.032250e-01  1.138868e-01  5.037987e-01  0.000000e+00  0.000000e+00
1.525600e+01  1.000000e-16  1.000000e-16  5.164763e-03  0.000000e+00  -3.157547e+01  0.000000e+00  0.000000e+00  0.000000e+00  0.000000e+00  0.000000e+00  5.029334e-01  9.693667e-02  5.034214e-01  0.000000e+00  0.000000e+00
1.525699e+01  1.000000e-16  1.000000e-16  5.036266e-03  0.000000e+00  -3.155027e+01  0.000000e+00  0.000000e+00  0.000000e+00  0.000000e+00  0.000000e+00  5.029299e-01  1.128743e-01  5.034982e-01  0.000000e+00  0.000000e+00
1.525801e+01  1.000000e-16  1.000000e-16  5.099203e-03  0.000000e+00  -3.156269e+01  0.000000e+00  0.000000e+00  0.000000e+00  0.000000e+00  0.000000e+00  5.030070e-01  1.123492e-01  5.035728e-01  0.000000e+00  0.000000e+00
1.525900e+01  1.000000e-16  1.000000e-16  5.071787e-03  0.000000e+00  -3.155730e+01  0.000000e+00  0.000000e+00  0.000000e+00  0.000000e+00  0.000000e+00  5.029981e-01  1.128590e-01  5.035664e-01  0.000000e+00  0.000000e+00

File: nn_Scan(1)2021_10_14T12_43_56.xdi
# XDI/1.0 SED_XAFS/0.9
# Column.1: energy eV
# Column.2: Ionization Chamber (IC) number 1
# Column.3: Ionization Chamber (IC) number 2
# Column.4: Ionization Chamber (IC) number 3
# Column.5: Transmission (log(IC1 current/ IC2 current))
# Column.6: Transmission Reference (log(IC2 current/IC3 current))
# Column.7: KETEK-If
# Column.8: KETEK-FLUOR
# Column.9: KETEK-ROI_0[c/s]
# Column.10: KETEK-ROI_1[c/s]
# Column.11: KETEK-ROI_2[c/s]
# Column.12: KETEK-e-time[sec]
# Column.13: KETEK-DEADTIME[%]
# Column.14: KETEK-INT_TIME[sec]
# Column.15: KETEK-OCR
# Column.16: KETEK-ICR
# Base.file_name: nn
# Element.edge: K
# Mono.name: Si 111
# Mono.d_spacing: 3.13553
# Beamline.name: XAFS/XRF Beamline (08-BM)
# Beamline.collimation: slits
# Beamline.focusing: no
# Beamline.harmonic_rejection: mirror coating VCM: Si, VFM: Pt
# Facility.name: SESAME Synchrotron-light
# Facility.energy: 2.50 GeV
# Facility.current: -0.06065
# Facility.xray_source: SESAME Bending Magnet
# Scan.start_time: 2021-10-14T12:44:04
# Scan.end_time: 2021-10-14T12:44:04
# Detector.IC1: 15cm  N2
# Detector.IC2: 30cm  N2
# Detector.IC3: 15cm  N2
# Element.symbol: Fe
# Sample.prep: Cu metal foil
# ///
# Cu foil Room Temperature
# measured at beamline 08-BM XAFS/XRF Beamline
#----
#(1)energy   (2)IC1[V]   (3)IC2[V]   (4)IC3[V]   (5)TRANS   (6)TransRef   (7)KETEK-If   (8)KETEK-FLUOR   (9)KETEK-ROI_0[c/s]   (10)KETEK-ROI_1[c/s]   (11)KETEK-ROI_2[c/s]   (12)KETEK-e-time[sec]   (13)KETEK-DEADTIME[%]   (14)KETEK-INT_TIME[sec]   (15)KETEK-OCR   (16)KETEK-ICR
1.524994e+01  1.000000e-16  1.000000e-16  5.089906e-03  0.000000e+00  -3.156087e+01  0.000000e+00  0.000000e+00  0.000000e+00  0.000000e+00  0.000000e+00  4.752163e-01  4.592792e-01  4.774090e-01  0.000000e+00  0.000000e+00
1.525099e+01  1.000000e-16  1.000000e-16  5.119944e-03  0.000000e+00  -3.156675e+01  0.000000e+00  0.000000e+00  0.000000e+00  0.000000e+00  0.000000e+00  5.027190e-01  1.528535e-01  5.034886e-01  0.000000e+00  0.000000e+00
1.525201e+01  1.000000e-16  1.000000e-16  5.093243e-03  0.000000e+00  -3.156152e+01  0.000000e+00  0.000000e+00  0.000000e+00  0.000000e+00  0.000000e+00  5.031930e-01  1.129422e-01  5.037619e-01  0.000000e+00  0.000000e+00
1.525300e+01  1.000000e-16  1.000000e-16  5.113269e-03  0.000000e+00  -3.156545e+01  0.000000e+00  0.000000e+00  0.000000e+00  0.000000e+00  0.000000e+00  5.028381e-01  9.784425e-02  5.033306e-01  0.000000e+00  0.000000e+00
1.525402e+01  1.000000e-16  1.000000e-16  4.932561e-03  0.000000e+00  -3.152946e+01  0.000000e+00  0.000000e+00  0.000000e+00  0.000000e+00  0.000000e+00  5.029158e-01  1.150994e-01  5.034954e-01  0.000000e+00  0.000000e+00
1.525501e+01  1.000000e-16  1.000000e-16  5.128765e-03  0.000000e+00  -3.156847e+01  0.000000e+00  0.000000e+00  0.000000e+00  0.000000e+00  0.000000e+00  5.031546e-01  9.892529e-02  5.036528e-01  0.000000e+00  0.000000e+00
1.525600e+01  1.000000e-16  1.000000e-16  5.144022e-03  0.000000e+00  -3.157144e+01  0.000000e+00  0.000000e+00  0.000000e+00  0.000000e+00  0.000000e+00  5.032669e-01  1.126085e-01  5.038342e-01  0.000000e+00  0.000000e+00
1.525702e+01  1.000000e-16  1.000000e-16  4.947104e-03  0.000000e+00  -3.153241e+01  0.000000e+00  0.000000e+00  0.000000e+00  0.000000e+00  0.000000e+00  5.032170e-01  9.884957e-02  5.037149e-01  0.000000e+00  0.000000e+00
1.525801e+01  1.000000e-16  1.000000e-16  5.096581e-03  0.000000e+00  -3.156218e+01  0.000000e+00  0.000000e+00  0.000000e+00  0.000000e+00  0.000000e+00  5.029981e-01  1.146997e-01  5.035757e-01  0.000000e+00  0.000000e+00
1.525900e+01  1.000000e-16  1.000000e-16  5.088475e-03  0.000000e+00  -3.156058e+01  0.000000e+00  0.000000e+00  0.000000e+00  0.000000e+00  0.000000e+00  5.030250e-01  1.129799e-01  5.035939e-01  0.000000e+00  0.000000e+00

File: nn_Scan(1)2021_10_14T12_47_01.xdi
# XDI/1.0 SED_XAFS/0.9
# Column.1: energy eV
# Column.2: Ionization Chamber (IC) number 1
# Column.3: Ionization Chamber (IC) number 2
# Column.4: Ionization Chamber (IC) number 3
# Column.5: Transmission (log(IC1 current/ IC2 current))
# Column.6: Transmission Reference (log(IC2 current/IC3 current))
# Column.7: KETEK-If
# Column.8: KETEK-FLUOR
# Column.9: KETEK-ROI_0[c/s]
# Column.10: KETEK-ROI_1[c/s]
# Column.11: KETEK-ROI_2[c/s]
# Column.12: KETEK-e-time[sec]
# Column.13: KETEK-DEADTIME[%]
# Column.14: KETEK-INT_TIME[sec]
# Column.15: KETEK-OCR
# Column.16: KETEK-ICR
# Base.file_name: nn
# Element.edge: K
# Mono.name: Si 111
# Mono.d_spacing: 3.13553
# Beamline.name: XAFS/XRF Beamline (08-BM)
# Beamline.collimation: slits
# Beamline.focusing: no
# Beamline.harmonic_rejection: mirror coating VCM: Si, VFM: Pt
# Facility.name: SESAME Synchrotron-light
# Facility.energy: 2.50 GeV
# Facility.current: -0.0595909
# Facility.xray_source: SESAME Bending Magnet
# Scan.start_time: 2021_10_14T12_47_01
# Scan.end_time: 2021-10-14T12:47:08
# Detector.IC1: 15cm  N2
# Detector.IC2: 30cm  N2
# Detector.IC3: 15cm  N2
# Element.symbol: Fe
# Sample.prep: Cu metal foil
# ///
# Cu foil Room Temperature
# measured at beamline 08-BM XAFS/XRF Beamline
#----
#(1)energy   (2)IC1[V]   (3)IC2[V]   (4)IC3[V]   (5)TRANS   (6)TransRef   (7)KETEK-If   (8)KETEK-FLUOR   (9)KETEK-ROI_0[c/s]   (10)KETEK-ROI_1[c/s]   (11)KETEK-ROI_2[c/s]   (12)KETEK-e-time[sec]   (13)KETEK-DEADTIME[%]   (14)KETEK-INT_TIME[sec]   (15)KETEK-OCR   (16)KETEK-ICR
1.524997e+01  1.000000e-16  1.000000e-16  5.046993e-03  0.000000e+00  -3.155240e+01  0.000000e+00  0.000000e+00  0.000000e+00  0.000000e+00  0.000000e+00  4.388922e-01  4.685071e-01  4.409581e-01  0.000000e+00  0.000000e+00
1.525096e+01  1.000000e-16  1.000000e-16  5.198377e-03  0.000000e+00  -3.158195e+01  0.000000e+00  0.000000e+00  0.000000e+00  0.000000e+00  0.000000e+00  5.028707e-01  1.502063e-01  5.036272e-01  0.000000e+00  0.000000e+00
1.525201e+01  1.000000e-16  1.000000e-16  5.034120e-03  0.000000e+00  -3.154984e+01  0.000000e+00  0.000000e+00  0.000000e+00  0.000000e+00  0.000000e+00  5.032675e-01  1.149556e-01  5.038467e-01  0.000000e+00  0.000000e+00
1.525300e+01  1.000000e-16  1.000000e-16  5.088237e-03  0.000000e+00  -3.156054e+01  0.000000e+00  0.000000e+00  0.000000e+00  0.000000e+00  0.000000e+00  5.031242e-01  1.151152e-01  5.037040e-01  0.000000e+00  0.000000e+00
1.525402e+01  1.000000e-16  1.000000e-16  5.115891e-03  0.000000e+00  -3.156596e+01  0.000000e+00  0.000000e+00  0.000000e+00  0.000000e+00  0.000000e+00  5.032560e-01  9.877845e-02  5.037536e-01  0.000000e+00  0.000000e+00
1.525498e+01  1.000000e-16  1.000000e-16  5.098011e-03  0.000000e+00  -3.156246e+01  0.000000e+00  0.000000e+00  0.000000e+00  0.000000e+00  0.000000e+00  5.032304e-01  1.128704e-01  5.037990e-01  0.000000e+00  0.000000e+00
1.525603e+01  1.000000e-16  1.000000e-16  5.190987e-03  0.000000e+00  -3.158053e+01  0.000000e+00  0.000000e+00  0.000000e+00  0.000000e+00  0.000000e+00  5.032694e-01  1.129885e-01  5.038387e-01  0.000000e+00  0.000000e+00
1.525702e+01  1.000000e-16  1.000000e-16  5.149267e-03  0.000000e+00  -3.157246e+01  0.000000e+00  0.000000e+00  0.000000e+00  0.000000e+00  0.000000e+00  5.030778e-01  9.900386e-02  5.035763e-01  0.000000e+00  0.000000e+00
1.525801e+01  1.000000e-16  1.000000e-16  5.122805e-03  0.000000e+00  -3.156731e+01  0.000000e+00  0.000000e+00  0.000000e+00  0.000000e+00  0.000000e+00  5.032413e-01  1.130583e-01  5.038109e-01  0.000000e+00  0.000000e+00
1.525900e+01  1.000000e-16  1.000000e-16  5.060582e-03  0.000000e+00  -3.155509e+01  0.000000e+00  0.000000e+00  0.000000e+00  0.000000e+00  0.000000e+00  5.030515e-01  1.146876e-01  5.036291e-01  0.000000e+00  0.000000e+00

File: nn_Scan(1)2021_10_19T14_19_14.xdi
# XDI/1.0 SED_XAFS/0.9
# Column.1: energy eV
# Column.2: Ionization Chamber (IC) number 1
# Column.3: Ionization Chamber (IC) number 2
# Column.4: Ionization Chamber (IC) number 3
# Column.5: Transmission (log(IC1 current/ IC2 current))
# Column.6: Transmission Reference (log(IC2 current/IC3 current))
# Base.file_name: nn
# Element.edge: K
# Mono.name: Si 111
# Mono.d_spacing: 3.13553
# Mono.settling_time: 0.0
# Beamline.name: XAFS/XRF Beamline (08-BM)
# Beamline.collimation: slits
# Beamline.focusing: no
# Beamline.harmonic_rejection: mirror coating VCM: Si, VFM: Si
# Facility.name: SESAME Synchrotron-light
# Facility.energy: 2.50 GeV
# Facility.current: 216.838
# Facility.xray_source: SESAME Bending Magnet
# Scan.start_time: 2021-10-19T14:19:14
# Scan.end_time: 2021-10-19T14:19:24
# Scan.edge_energy: 3500
# Scan.number: 1/1 -- intervals: 2, samples: 1
# Detector.IC1: 15cm  h
# Detector.IC2: 30cm  n
# Detector.IC3: 15cm  n
# Element.symbol: Cu
# Sample.stoichiometry: NONE
# Sample.prep: jkkljklfd
# ///
# Experiment comments and remarks: NONE
# User comments and remarks: NONE
#----
#(1)energy   (2)IC1[V]   (3)IC2[V]   (4)IC3[V]   (5)TRANS   (6)TransRef
1.524992e+01  1.000000e-16  1.000000e-16  5.062251e-03  0.000000e+00  -3.155542e+01
1.525099e+01  1.000000e-16  1.000000e-16  5.041272e-03  0.000000e+00  -3.155126e+01
1.525201e+01  1.000000e-16  1.000000e-16  5.041272e-03  0.000000e+00  -3.155126e+01
1.525300e+01  1.000000e-16  1.000000e-16  4.992400e-03  0.000000e+00  -3.154152e+01
1.525399e+01  1.000000e-16  1.000000e-16  5.103256e-03  0.000000e+00  -3.156348e+01
1.525501e+01  1.000000e-16  1.000000e-16  5.068927e-03  0.000000e+00  -3.155674e+01
1.525600e+01  1.000000e-16  1.000000e-16  5.166909e-03  0.000000e+00  -3.157588e+01
1.525699e+01  1.000000e-16  1.000000e-16  4.972375e-03  0.000000e+00  -3.153750e+01
1.525798e+01  1.000000e-16  1.000000e-16  5.051761e-03  0.000000e+00  -3.155334e+01
1.525900e+01  1.000000e-16  1.000000e-16  4.963554e-03  0.000000e+00  -3.153573e+01
1.525999e+01  1.000000e-16  1.000000e-16  5.157611e-03  0.000000e+00  -3.157408e+01
1.526101e+01  1.000000e-16  1.000000e-16  5.048186e-03  0.000000e+00  -3.155264e+01
1.526200e+01  1.000000e-16  1.000000e-16  5.020055e-03  0.000000e+00  -3.154705e+01
1.526299e+01  1.000000e-16  1.000000e-16  4.865809e-03  0.000000e+00  -3.151584e+01
1.526401e+01  1.000000e-16  1.000000e-16  5.089428e-03  0.000000e+00  -3.156077e+01
1.526497e+01  1.000000e-16  1.000000e-16  5.045087e-03  0.000000e+00  -3.155202e+01
1.526602e+01  1.000000e-16  1.000000e-16  5.067496e-03  0.000000e+00  -3.155645e+01
1.526701e+01  1.000000e-16  1.000000e-16  5.099203e-03  0.000000e+00  -3.156269e+01
1.526800e+01  1.000000e-16  1.000000e-16  4.904192e-03  0.000000e+00  -3.152370e+01
1.526900e+01  1.000000e-16  1.000000e-16  5.055576e-03  0.000000e+00  -3.155410e+01