Folder: HESEBScanTool/tmp/SEM[1]/XAFS/20185101/data/csv (part 5)

File: Test with logging _Scan(1)2021_10_18T22_04_58.xdi
# XDI/1.0 SED_XAFS/0.9
# Column.1: energy eV
# Column.2: Ionization Chamber (IC) number 1
# Column.3: Ionization Chamber (IC) number 2
# Column.4: Ionization Chamber (IC) number 3
# Column.5: Transmission (log(IC1 current/ IC2 current))
# Column.6: Transmission Reference (log(IC2 current/IC3 current))
# Column.7: KETEK-If
# Column.8: KETEK-FLUOR
# Column.9: KETEK-ROI_0[c/s]
# Column.10: KETEK-ROI_1[c/s]
# Column.11: KETEK-ROI_2[c/s]
# Column.12: KETEK-e-time[sec]
# Column.13: KETEK-DEADTIME[%]
# Column.14: KETEK-INT_TIME[sec]
# Column.15: KETEK-OCR
# Column.16: KETEK-ICR
# Base.file_name: Test with logging
# Element.edge: K
# Mono.name: Si 111
# Mono.d_spacing: 3.13553
# Mono.settling_time: 1.0
# Beamline.name: XAFS/XRF Beamline (08-BM)
# Beamline.collimation: slits
# Beamline.focusing: no
# Beamline.harmonic_rejection: mirror coating VCM: Si, VFM: Si
# Facility.name: SESAME Synchrotron-light
# Facility.energy: 2.50 GeV
# Facility.current: 55.2636
# Facility.xray_source: SESAME Bending Magnet
# Scan.start_time: 2021-10-18T22:04:58
# Scan.end_time: 2021-10-18T22:05:05
# Scan.edge_energy: 25000
# Scan.number: 1/1 -- intervals: 2, samples: 1
# Detector.IC1: 15cm  N2
# Detector.IC2: 30cm  N2
# Detector.IC3: 15cm  O3
# Element.symbol: Cu
# Sample.stoichiometry: NONE
# Sample.prep: fsdf
# ///
# Experiment comments and remarks: NONE
# User comments and remarks: NONE
#----
#(1)energy   (2)IC1[V]   (3)IC2[V]   (4)IC3[V]   (5)TRANS   (6)TransRef   (7)KETEK-If   (8)KETEK-FLUOR   (9)KETEK-ROI_0[c/s]   (10)KETEK-ROI_1[c/s]   (11)KETEK-ROI_2[c/s]   (12)KETEK-e-time[sec]   (13)KETEK-DEADTIME[%]   (14)KETEK-INT_TIME[sec]   (15)KETEK-OCR   (16)KETEK-ICR
1.524994e+01  1.000000e-16  1.000000e-16  4.975235e-03  0.000000e+00  -3.153808e+01  0.000000e+00  0.000000e+00  0.000000e+00  0.000000e+00  0.000000e+00  4.277370e-01  4.435315e-01  4.296426e-01  0.000000e+00  0.000000e+00
1.525093e+01  1.000000e-16  1.000000e-16  5.044371e-03  0.000000e+00  -3.155188e+01  0.000000e+00  0.000000e+00  0.000000e+00  0.000000e+00  0.000000e+00  5.031226e-01  1.064848e-01  5.036589e-01  0.000000e+00  3.975175e+00
1.525198e+01  1.000000e-16  1.000000e-16  4.983340e-03  0.000000e+00  -3.153971e+01  0.000000e+00  0.000000e+00  0.000000e+00  0.000000e+00  0.000000e+00  5.029530e-01  9.039189e-02  5.034080e-01  0.000000e+00  0.000000e+00
1.525300e+01  1.000000e-16  1.000000e-16  5.107309e-03  0.000000e+00  -3.156428e+01  0.000000e+00  0.000000e+00  0.000000e+00  0.000000e+00  0.000000e+00  5.029910e-01  1.119084e-01  5.035546e-01  0.000000e+00  0.000000e+00
1.525399e+01  1.000000e-16  1.000000e-16  5.061536e-03  0.000000e+00  -3.155528e+01  0.000000e+00  0.000000e+00  0.000000e+00  0.000000e+00  0.000000e+00  5.028483e-01  9.777874e-02  5.033405e-01  0.000000e+00  0.000000e+00
1.525506e+01  1.000000e-16  1.000000e-16  5.090621e-03  0.000000e+00  -3.156101e+01  0.000000e+00  0.000000e+00  0.000000e+00  0.000000e+00  0.000000e+00  5.033043e-01  9.864207e-02  5.038013e-01  0.000000e+00  0.000000e+00
1.525605e+01  1.000000e-16  1.000000e-16  4.966176e-03  0.000000e+00  -3.153626e+01  0.000000e+00  0.000000e+00  0.000000e+00  0.000000e+00  0.000000e+00  5.031370e-01  1.122568e-01  5.037024e-01  0.000000e+00  0.000000e+00
1.525699e+01  1.000000e-16  1.000000e-16  5.251064e-03  0.000000e+00  -3.159204e+01  0.000000e+00  0.000000e+00  0.000000e+00  0.000000e+00  0.000000e+00  5.029069e-01  9.662425e-02  5.033933e-01  0.000000e+00  0.000000e+00
1.525801e+01  1.000000e-16  1.000000e-16  5.041272e-03  0.000000e+00  -3.155126e+01  0.000000e+00  0.000000e+00  0.000000e+00  0.000000e+00  0.000000e+00  5.032614e-01  9.274835e-02  5.037286e-01  0.000000e+00  0.000000e+00
1.525903e+01  1.000000e-16  1.000000e-16  5.002413e-03  0.000000e+00  -3.154353e+01  0.000000e+00  0.000000e+00  0.000000e+00  0.000000e+00  0.000000e+00  5.028355e-01  1.120700e-01  5.033997e-01  0.000000e+00  0.000000e+00
1.526002e+01  1.000000e-16  1.000000e-16  5.208629e-03  0.000000e+00  -3.158392e+01  0.000000e+00  0.000000e+00  0.000000e+00  0.000000e+00  0.000000e+00  4.018592e-02  4.731411e-01  4.037696e-02  0.000000e+00  0.000000e+00
1.526098e+01  1.000000e-16  1.000000e-16  5.064873e-03  0.000000e+00  -3.155594e+01  0.000000e+00  0.000000e+00  0.000000e+00  0.000000e+00  0.000000e+00  1.033437e-01  2.631246e-01  1.036163e-01  0.000000e+00  0.000000e+00
1.526203e+01  1.000000e-16  1.000000e-16  4.980241e-03  0.000000e+00  -3.153908e+01  0.000000e+00  0.000000e+00  0.000000e+00  0.000000e+00  0.000000e+00  1.036544e-01  1.365754e-01  1.037962e-01  0.000000e+00  0.000000e+00
1.526299e+01  1.000000e-16  1.000000e-16  5.083946e-03  0.000000e+00  -3.155969e+01  0.000000e+00  0.000000e+00  0.000000e+00  0.000000e+00  0.000000e+00  1.035334e-01  9.664819e-02  1.036336e-01  0.000000e+00  0.000000e+00
1.526401e+01  1.000000e-16  1.000000e-16  5.028875e-03  0.000000e+00  -3.154880e+01  0.000000e+00  0.000000e+00  0.000000e+00  0.000000e+00  0.000000e+00  1.033773e-01  1.128567e-01  1.034941e-01  0.000000e+00  0.000000e+00
1.526500e+01  1.000000e-16  1.000000e-16  5.093958e-03  0.000000e+00  -3.156166e+01  0.000000e+00  0.000000e+00  0.000000e+00  0.000000e+00  0.000000e+00  1.037754e-01  1.145779e-01  1.038944e-01  0.000000e+00  0.000000e+00
1.526605e+01  1.000000e-16  1.000000e-16  5.093958e-03  0.000000e+00  -3.156166e+01  0.000000e+00  0.000000e+00  0.000000e+00  0.000000e+00  0.000000e+00  1.033098e-01  1.129304e-01  1.034266e-01  0.000000e+00  0.000000e+00
1.526707e+01  1.000000e-16  1.000000e-16  5.052715e-03  0.000000e+00  -3.155353e+01  0.000000e+00  0.000000e+00  0.000000e+00  0.000000e+00  0.000000e+00  1.034464e-01  1.109295e-01  1.035613e-01  0.000000e+00  0.000000e+00
1.526800e+01  1.000000e-16  1.000000e-16  4.912775e-03  0.000000e+00  -3.152545e+01  0.000000e+00  0.000000e+00  0.000000e+00  0.000000e+00  0.000000e+00  1.037440e-01  1.103039e-01  1.038586e-01  0.000000e+00  0.000000e+00
1.526900e+01  1.000000e-16  1.000000e-16  4.981434e-03  0.000000e+00  -3.153932e+01  0.000000e+00  0.000000e+00  0.000000e+00  0.000000e+00  0.000000e+00  1.033469e-01  9.064136e-02  1.034406e-01  0.000000e+00  0.000000e+00

File: test_2int_2scans_Scan(1)2021-10-14T15:30:52.xdi
# XDI/1.0 SED_XAFS/0.9
# Column.1: energy eV
# Column.2: Ionization Chamber (IC) number 1
# Column.3: Ionization Chamber (IC) number 2
# Column.4: Ionization Chamber (IC) number 3
# Column.5: Transmission (log(IC1 current/ IC2 current))
# Column.6: Transmission Reference (log(IC2 current/IC3 current))
# Column.7: KETEK-If
# Column.8: KETEK-FLUOR
# Column.9: KETEK-ROI_0[c/s]
# Column.10: KETEK-ROI_1[c/s]
# Column.11: KETEK-ROI_2[c/s]
# Column.12: KETEK-e-time[sec]
# Column.13: KETEK-DEADTIME[%]
# Column.14: KETEK-INT_TIME[sec]
# Column.15: KETEK-OCR
# Column.16: KETEK-ICR
# Base.file_name: test_2int_2scans
# Element.edge: K
# Mono.name: Si 111
# Mono.d_spacing: 3.13553
# Beamline.name: XAFS/XRF Beamline (08-BM)
# Beamline.collimation: slits
# Beamline.focusing: no
# Beamline.harmonic_rejection: mirror coating VCM: Si, VFM: Pt
# Facility.name: SESAME Synchrotron-light
# Facility.energy: 2.50 GeV
# Facility.current: -0.0627173
# Facility.xray_source: SESAME Bending Magnet
# Scan.start_time: 2021_10_14T15_30_52
# Scan.end_time: 2021-10-14T15:30:59
# Scan.number: 1/2 -- interval: 1/3, sample: 1/1
# Detector.IC1: 15cm  N2
# Detector.IC2: 30cm  N2
# Detector.IC3: 15cm  N2
# Element.symbol: Fe
# Sample.prep: Cu metal foil
# ///
# Cu foil Room Temperature
# measured at beamline 08-BM XAFS/XRF Beamline
#----
#(1)energy   (2)IC1[V]   (3)IC2[V]   (4)IC3[V]   (5)TRANS   (6)TransRef   (7)KETEK-If   (8)KETEK-FLUOR   (9)KETEK-ROI_0[c/s]   (10)KETEK-ROI_1[c/s]   (11)KETEK-ROI_2[c/s]   (12)KETEK-e-time[sec]   (13)KETEK-DEADTIME[%]   (14)KETEK-INT_TIME[sec]   (15)KETEK-OCR   (16)KETEK-ICR
1.524997e+01  1.000000e-16  1.000000e-16  5.194563e-03  0.000000e+00  -3.158122e+01  0.000000e+00  0.000000e+00  0.000000e+00  0.000000e+00  0.000000e+00  4.861834e-01  4.690521e-01  4.884746e-01  0.000000e+00  0.000000e+00
1.525093e+01  1.000000e-16  1.000000e-16  5.172392e-03  0.000000e+00  -3.157694e+01  0.000000e+00  0.000000e+00  0.000000e+00  0.000000e+00  0.000000e+00  5.026586e-01  1.465248e-01  5.033962e-01  0.000000e+00  0.000000e+00
1.525201e+01  1.000000e-16  1.000000e-16  5.054384e-03  0.000000e+00  -3.155386e+01  0.000000e+00  0.000000e+00  0.000000e+00  0.000000e+00  0.000000e+00  5.031574e-01  1.156152e-01  5.037398e-01  0.000000e+00  0.000000e+00
1.525300e+01  1.000000e-16  1.000000e-16  5.167624e-03  0.000000e+00  -3.157602e+01  0.000000e+00  0.000000e+00  0.000000e+00  0.000000e+00  0.000000e+00  5.029600e-01  1.162953e-01  5.035456e-01  0.000000e+00  0.000000e+00
1.525399e+01  1.000000e-16  1.000000e-16  5.166909e-03  0.000000e+00  -3.157588e+01  0.000000e+00  0.000000e+00  0.000000e+00  0.000000e+00  0.000000e+00  5.029222e-01  9.598625e-02  5.034054e-01  0.000000e+00  0.000000e+00
1.525501e+01  1.000000e-16  1.000000e-16  5.105163e-03  0.000000e+00  -3.156386e+01  0.000000e+00  0.000000e+00  0.000000e+00  0.000000e+00  0.000000e+00  5.030608e-01  1.163355e-01  5.036467e-01  0.000000e+00  0.000000e+00
1.525600e+01  1.000000e-16  1.000000e-16  5.064158e-03  0.000000e+00  -3.155579e+01  0.000000e+00  0.000000e+00  0.000000e+00  0.000000e+00  0.000000e+00  5.031987e-01  1.155423e-01  5.037808e-01  0.000000e+00  0.000000e+00
1.525699e+01  1.000000e-16  1.000000e-16  5.199331e-03  0.000000e+00  -3.158214e+01  0.000000e+00  0.000000e+00  0.000000e+00  0.000000e+00  0.000000e+00  5.032525e-01  1.175600e-01  5.038448e-01  0.000000e+00  0.000000e+00
1.525801e+01  1.000000e-16  1.000000e-16  5.170485e-03  0.000000e+00  -3.157657e+01  0.000000e+00  0.000000e+00  0.000000e+00  0.000000e+00  0.000000e+00  5.032493e-01  9.554314e-02  5.037306e-01  0.000000e+00  0.000000e+00
1.525900e+01  1.000000e-16  1.000000e-16  5.145214e-03  0.000000e+00  -3.157167e+01  0.000000e+00  0.000000e+00  0.000000e+00  0.000000e+00  0.000000e+00  5.028646e-01  1.159364e-01  5.034483e-01  0.000000e+00  0.000000e+00
1.526002e+01  1.000000e-16  1.000000e-16  5.233661e-03  0.000000e+00  -3.158872e+01  0.000000e+00  0.000000e+00  0.000000e+00  0.000000e+00  0.000000e+00  9.971920e-01  4.355152e-01  1.001554e+00  0.000000e+00  2.005632e+00
1.526104e+01  1.000000e-16  1.000000e-16  5.140685e-03  0.000000e+00  -3.157079e+01  0.000000e+00  0.000000e+00  0.000000e+00  0.000000e+00  0.000000e+00  1.006071e+00  1.489204e-01  1.007572e+00  0.000000e+00  1.987931e+00
1.526203e+01  1.000000e-16  1.000000e-16  5.048424e-03  0.000000e+00  -3.155268e+01  0.000000e+00  0.000000e+00  0.000000e+00  0.000000e+00  0.000000e+00  1.006312e+00  9.673515e-02  1.007286e+00  0.000000e+00  0.000000e+00
1.526302e+01  1.000000e-16  1.000000e-16  5.211490e-03  0.000000e+00  -3.158447e+01  0.000000e+00  0.000000e+00  0.000000e+00  0.000000e+00  0.000000e+00  1.006566e+00  9.664729e-02  1.007540e+00  0.000000e+00  0.000000e+00
1.526401e+01  1.000000e-16  1.000000e-16  5.121136e-03  0.000000e+00  -3.156698e+01  0.000000e+00  0.000000e+00  0.000000e+00  0.000000e+00  0.000000e+00  1.006522e+00  9.703230e-02  1.007500e+00  0.000000e+00  0.000000e+00
1.526503e+01  1.000000e-16  1.000000e-16  5.070596e-03  0.000000e+00  -3.155706e+01  0.000000e+00  0.000000e+00  0.000000e+00  0.000000e+00  0.000000e+00  1.006597e+00  1.168515e-01  1.007775e+00  0.000000e+00  0.000000e+00
1.526602e+01  1.000000e-16  1.000000e-16  5.156181e-03  0.000000e+00  -3.157380e+01  0.000000e+00  0.000000e+00  0.000000e+00  0.000000e+00  0.000000e+00  1.006348e+00  1.154528e-01  1.007511e+00  0.000000e+00  0.000000e+00
1.526701e+01  1.000000e-16  1.000000e-16  5.103494e-03  0.000000e+00  -3.156353e+01  0.000000e+00  0.000000e+00  0.000000e+00  0.000000e+00  0.000000e+00  1.006380e+00  1.156395e-01  1.007545e+00  0.000000e+00  0.000000e+00
1.526803e+01  1.000000e-16  1.000000e-16  5.114699e-03  0.000000e+00  -3.156572e+01  0.000000e+00  0.000000e+00  0.000000e+00  0.000000e+00  0.000000e+00  1.006515e+00  1.168294e-01  1.007692e+00  0.000000e+00  0.000000e+00
1.526902e+01  1.000000e-16  1.000000e-16  5.246534e-03  0.000000e+00  -3.159117e+01  0.000000e+00  0.000000e+00  0.000000e+00  0.000000e+00  0.000000e+00  1.006278e+00  1.158733e-01  1.007445e+00  0.000000e+00  0.000000e+00
1.527002e+01  1.000000e-16  1.000000e-16  5.244866e-03  0.000000e+00  -3.159086e+01  0.000000e+00  0.000000e+00  0.000000e+00  0.000000e+00  0.000000e+00  1.006188e+00  9.506468e-02  1.007146e+00  0.000000e+00  0.000000e+00
1.527101e+01  1.000000e-16  1.000000e-16  5.171676e-03  0.000000e+00  -3.157680e+01  0.000000e+00  0.000000e+00  0.000000e+00  0.000000e+00  0.000000e+00  1.006311e+00  1.155205e-01  1.007475e+00  0.000000e+00  0.000000e+00
1.527203e+01  1.000000e-16  1.000000e-16  5.145453e-03  0.000000e+00  -3.157172e+01  0.000000e+00  0.000000e+00  0.000000e+00  0.000000e+00  0.000000e+00  1.006487e+00  1.021443e-01  1.007516e+00  0.000000e+00  0.000000e+00
1.527302e+01  1.000000e-16  1.000000e-16  5.066542e-03  0.000000e+00  -3.155626e+01  0.000000e+00  0.000000e+00  0.000000e+00  0.000000e+00  0.000000e+00  1.006611e+00  1.152641e-01  1.007772e+00  0.000000e+00  0.000000e+00
1.527402e+01  1.000000e-16  1.000000e-16  5.120897e-03  0.000000e+00  -3.156694e+01  0.000000e+00  0.000000e+00  0.000000e+00  0.000000e+00  0.000000e+00  1.006593e+00  1.194527e-01  1.007797e+00  0.000000e+00  3.973801e+00
1.527504e+01  1.000000e-16  1.000000e-16  5.109693e-03  0.000000e+00  -3.156475e+01  0.000000e+00  0.000000e+00  0.000000e+00  0.000000e+00  0.000000e+00  1.006330e+00  1.162480e-01  1.007501e+00  0.000000e+00  0.000000e+00
1.527603e+01  1.000000e-16  1.000000e-16  5.156658e-03  0.000000e+00  -3.157389e+01  0.000000e+00  0.000000e+00  0.000000e+00  0.000000e+00  0.000000e+00  1.006297e+00  1.158076e-01  1.007464e+00  0.000000e+00  0.000000e+00
1.527705e+01  1.000000e-16  1.000000e-16  5.161902e-03  0.000000e+00  -3.157491e+01  0.000000e+00  0.000000e+00  0.000000e+00  0.000000e+00  0.000000e+00  1.006411e+00  1.152553e-01  1.007572e+00  0.000000e+00  0.000000e+00
1.527804e+01  1.000000e-16  1.000000e-16  5.109693e-03  0.000000e+00  -3.156475e+01  0.000000e+00  0.000000e+00  0.000000e+00  0.000000e+00  0.000000e+00  1.006446e+00  1.151244e-01  1.007606e+00  0.000000e+00  0.000000e+00
1.527901e+01  1.000000e-16  1.000000e-16  5.098488e-03  0.000000e+00  -3.156255e+01  0.000000e+00  0.000000e+00  0.000000e+00  0.000000e+00  0.000000e+00  1.006203e+00  1.175953e-01  1.007387e+00  0.000000e+00  0.000000e+00
1.528003e+01  1.000000e-16  1.000000e-16  5.086330e-03  0.000000e+00  -3.156016e+01  0.000000e+00  0.000000e+00  0.000000e+00  0.000000e+00  0.000000e+00  1.006486e+00  1.001454e-01  1.007495e+00  0.000000e+00  0.000000e+00
1.528108e+01  1.000000e-16  1.000000e-16  5.024346e-03  0.000000e+00  -3.154790e+01  0.000000e+00  0.000000e+00  0.000000e+00  0.000000e+00  0.000000e+00  1.006436e+00  1.167751e-01  1.007612e+00  0.000000e+00  0.000000e+00
1.528202e+01  1.000000e-16  1.000000e-16  5.198854e-03  0.000000e+00  -3.158204e+01  0.000000e+00  0.000000e+00  0.000000e+00  0.000000e+00  0.000000e+00  1.006391e+00  1.186836e-01  1.007587e+00  0.000000e+00  0.000000e+00
1.528304e+01  1.000000e-16  1.000000e-16  5.152128e-03  0.000000e+00  -3.157302e+01  0.000000e+00  0.000000e+00  0.000000e+00  0.000000e+00  0.000000e+00  1.006521e+00  1.170507e-01  1.007700e+00  0.000000e+00  0.000000e+00
1.528403e+01  1.000000e-16  1.000000e-16  5.120659e-03  0.000000e+00  -3.156689e+01  0.000000e+00  0.000000e+00  0.000000e+00  0.000000e+00  0.000000e+00  1.006227e+00  1.154350e-01  1.007390e+00  0.000000e+00  0.000000e+00
1.528503e+01  1.000000e-16  1.000000e-16  5.103256e-03  0.000000e+00  -3.156348e+01  0.000000e+00  0.000000e+00  0.000000e+00  0.000000e+00  0.000000e+00  1.006608e+00  1.160890e-01  1.007778e+00  0.000000e+00  0.000000e+00
1.528602e+01  1.000000e-16  1.000000e-16  5.049139e-03  0.000000e+00  -3.155282e+01  0.000000e+00  0.000000e+00  0.000000e+00  0.000000e+00  0.000000e+00  1.006564e+00  9.474368e-02  1.007518e+00  0.000000e+00  0.000000e+00
1.528702e+01  1.000000e-16  1.000000e-16  5.191702e-03  0.000000e+00  -3.158067e+01  0.000000e+00  0.000000e+00  0.000000e+00  0.000000e+00  0.000000e+00  1.006571e+00  1.157762e-01  1.007738e+00  0.000000e+00  0.000000e+00
1.528804e+01  1.000000e-16  1.000000e-16  5.159757e-03  0.000000e+00  -3.157450e+01  0.000000e+00  0.000000e+00  0.000000e+00  0.000000e+00  0.000000e+00  1.006307e+00  9.984589e-02  1.007312e+00  0.000000e+00  0.000000e+00
1.528906e+01  1.000000e-16  1.000000e-16  5.075363e-03  0.000000e+00  -3.155800e+01  0.000000e+00  0.000000e+00  0.000000e+00  0.000000e+00  0.000000e+00  1.006456e+00  1.158211e-01  1.007623e+00  0.000000e+00  0.000000e+00

File: test_2int_2scans_Scan(1)2021-10-14T15:34:14.xdi
# XDI/1.0 SED_XAFS/0.9
# Column.1: energy eV
# Column.2: Ionization Chamber (IC) number 1
# Column.3: Ionization Chamber (IC) number 2
# Column.4: Ionization Chamber (IC) number 3
# Column.5: Transmission (log(IC1 current/ IC2 current))
# Column.6: Transmission Reference (log(IC2 current/IC3 current))
# Column.7: KETEK-If
# Column.8: KETEK-FLUOR
# Column.9: KETEK-ROI_0[c/s]
# Column.10: KETEK-ROI_1[c/s]
# Column.11: KETEK-ROI_2[c/s]
# Column.12: KETEK-e-time[sec]
# Column.13: KETEK-DEADTIME[%]
# Column.14: KETEK-INT_TIME[sec]
# Column.15: KETEK-OCR
# Column.16: KETEK-ICR
# Base.file_name: test_2int_2scans
# Element.edge: K
# Mono.name: Si 111
# Mono.d_spacing: 3.13553
# Beamline.name: XAFS/XRF Beamline (08-BM)
# Beamline.collimation: slits
# Beamline.focusing: no
# Beamline.harmonic_rejection: mirror coating VCM: Si, VFM: Pt
# Facility.name: SESAME Synchrotron-light
# Facility.energy: 2.50 GeV
# Facility.current: -0.0608667
# Facility.xray_source: SESAME Bending Magnet
# Scan.start_time: 2021_10_14T15_34_14
# Scan.end_time: 2021-10-14T15:34:47
# Scan.number: 1/2 -- interval: 1/3, sample: 1/1
# Detector.IC1: 15cm  N2
# Detector.IC2: 30cm  N2
# Detector.IC3: 15cm  N2
# Element.symbol: Fe
# Sample.prep: Cu metal foil
# ///
# Cu foil Room Temperature
# measured at beamline 08-BM XAFS/XRF Beamline
#----
#(1)energy   (2)IC1[V]   (3)IC2[V]   (4)IC3[V]   (5)TRANS   (6)TransRef   (7)KETEK-If   (8)KETEK-FLUOR   (9)KETEK-ROI_0[c/s]   (10)KETEK-ROI_1[c/s]   (11)KETEK-ROI_2[c/s]   (12)KETEK-e-time[sec]   (13)KETEK-DEADTIME[%]   (14)KETEK-INT_TIME[sec]   (15)KETEK-OCR   (16)KETEK-ICR
1.524989e+01  1.000000e-16  1.000000e-16  5.173822e-03  0.000000e+00  -3.157722e+01  0.000000e+00  0.000000e+00  0.000000e+00  0.000000e+00  0.000000e+00  4.251379e-01  4.623417e-01  4.271126e-01  0.000000e+00  0.000000e+00
1.525099e+01  1.000000e-16  1.000000e-16  5.191464e-03  0.000000e+00  -3.158062e+01  0.000000e+00  0.000000e+00  0.000000e+00  0.000000e+00  0.000000e+00  5.025670e-01  1.727010e-01  5.034365e-01  0.000000e+00  0.000000e+00
1.525204e+01  1.000000e-16  1.000000e-16  5.100872e-03  0.000000e+00  -3.156302e+01  0.000000e+00  0.000000e+00  0.000000e+00  0.000000e+00  0.000000e+00  5.029021e-01  9.884790e-02  5.033997e-01  0.000000e+00  0.000000e+00
1.525300e+01  1.000000e-16  1.000000e-16  5.122805e-03  0.000000e+00  -3.156731e+01  0.000000e+00  0.000000e+00  0.000000e+00  0.000000e+00  0.000000e+00  5.028739e-01  1.147915e-01  5.034518e-01  0.000000e+00  0.000000e+00
1.525399e+01  1.000000e-16  1.000000e-16  5.254640e-03  0.000000e+00  -3.159272e+01  0.000000e+00  0.000000e+00  0.000000e+00  0.000000e+00  0.000000e+00  5.030438e-01  9.678844e-02  5.035312e-01  0.000000e+00  0.000000e+00
1.525504e+01  1.000000e-16  1.000000e-16  5.159042e-03  0.000000e+00  -3.157436e+01  0.000000e+00  0.000000e+00  0.000000e+00  0.000000e+00  0.000000e+00  5.030602e-01  1.166530e-01  5.036477e-01  0.000000e+00  0.000000e+00
1.525600e+01  1.000000e-16  1.000000e-16  5.115653e-03  0.000000e+00  -3.156591e+01  0.000000e+00  0.000000e+00  0.000000e+00  0.000000e+00  0.000000e+00  5.029770e-01  1.164184e-01  5.035632e-01  0.000000e+00  0.000000e+00
1.525699e+01  1.000000e-16  1.000000e-16  5.260838e-03  0.000000e+00  -3.159390e+01  0.000000e+00  0.000000e+00  0.000000e+00  0.000000e+00  0.000000e+00  5.030214e-01  1.162811e-01  5.036070e-01  0.000000e+00  0.000000e+00
1.525801e+01  1.000000e-16  1.000000e-16  5.207198e-03  0.000000e+00  -3.158365e+01  0.000000e+00  0.000000e+00  0.000000e+00  0.000000e+00  0.000000e+00  5.027693e-01  1.252285e-01  5.033997e-01  0.000000e+00  0.000000e+00
1.525903e+01  1.000000e-16  1.000000e-16  5.115176e-03  0.000000e+00  -3.156582e+01  0.000000e+00  0.000000e+00  0.000000e+00  0.000000e+00  0.000000e+00  5.029027e-01  1.158007e-01  5.034858e-01  0.000000e+00  0.000000e+00
1.526002e+01  1.000000e-16  1.000000e-16  5.177875e-03  0.000000e+00  -3.157800e+01  0.000000e+00  0.000000e+00  0.000000e+00  0.000000e+00  0.000000e+00  9.393853e-01  4.385943e-01  9.435235e-01  0.000000e+00  0.000000e+00
1.526101e+01  1.000000e-16  1.000000e-16  5.122328e-03  0.000000e+00  -3.156722e+01  0.000000e+00  0.000000e+00  0.000000e+00  0.000000e+00  0.000000e+00  1.005976e+00  1.639018e-01  1.007628e+00  0.000000e+00  0.000000e+00
1.526203e+01  1.000000e-16  1.000000e-16  5.173107e-03  0.000000e+00  -3.157708e+01  0.000000e+00  0.000000e+00  0.000000e+00  0.000000e+00  0.000000e+00  1.006552e+00  1.173325e-01  1.007734e+00  0.000000e+00  0.000000e+00
1.526299e+01  1.000000e-16  1.000000e-16  5.324253e-03  0.000000e+00  -3.160588e+01  0.000000e+00  0.000000e+00  0.000000e+00  0.000000e+00  0.000000e+00  1.006450e+00  1.169003e-01  1.007628e+00  0.000000e+00  0.000000e+00
1.526401e+01  1.000000e-16  1.000000e-16  5.249395e-03  0.000000e+00  -3.159172e+01  0.000000e+00  0.000000e+00  0.000000e+00  0.000000e+00  0.000000e+00  1.006328e+00  1.152647e-01  1.007490e+00  0.000000e+00  0.000000e+00
1.526506e+01  1.000000e-16  1.000000e-16  5.150459e-03  0.000000e+00  -3.157269e+01  0.000000e+00  0.000000e+00  0.000000e+00  0.000000e+00  0.000000e+00  1.006556e+00  1.164439e-01  1.007730e+00  0.000000e+00  0.000000e+00
1.526605e+01  1.000000e-16  1.000000e-16  5.152128e-03  0.000000e+00  -3.157302e+01  0.000000e+00  0.000000e+00  0.000000e+00  0.000000e+00  0.000000e+00  1.006454e+00  1.155358e-01  1.007619e+00  0.000000e+00  0.000000e+00
1.526704e+01  1.000000e-16  1.000000e-16  5.140208e-03  0.000000e+00  -3.157070e+01  0.000000e+00  0.000000e+00  0.000000e+00  0.000000e+00  0.000000e+00  1.006184e+00  1.158206e-01  1.007351e+00  0.000000e+00  0.000000e+00
1.526798e+01  1.000000e-16  1.000000e-16  5.125666e-03  0.000000e+00  -3.156787e+01  0.000000e+00  0.000000e+00  0.000000e+00  0.000000e+00  0.000000e+00  1.006518e+00  1.263119e-01  1.007791e+00  0.000000e+00  3.974098e+00
1.526905e+01  1.000000e-16  1.000000e-16  5.137109e-03  0.000000e+00  -3.157010e+01  0.000000e+00  0.000000e+00  0.000000e+00  0.000000e+00  0.000000e+00  1.006392e+00  1.027886e-01  1.007427e+00  0.000000e+00  0.000000e+00
1.527002e+01  1.000000e-16  1.000000e-16  5.243912e-03  0.000000e+00  -3.159067e+01  0.000000e+00  0.000000e+00  0.000000e+00  0.000000e+00  0.000000e+00  4.262842e-01  4.709210e-01  4.283011e-01  0.000000e+00  0.000000e+00
1.527104e+01  1.000000e-16  1.000000e-16  5.237237e-03  0.000000e+00  -3.158940e+01  0.000000e+00  0.000000e+00  0.000000e+00  0.000000e+00  0.000000e+00  5.026573e-01  2.141439e-01  5.037360e-01  0.000000e+00  0.000000e+00
1.527203e+01  1.000000e-16  1.000000e-16  5.058437e-03  0.000000e+00  -3.155466e+01  0.000000e+00  0.000000e+00  0.000000e+00  0.000000e+00  0.000000e+00  5.031853e-01  1.171316e-01  5.037754e-01  0.000000e+00  0.000000e+00
1.527305e+01  1.000000e-16  1.000000e-16  5.104687e-03  0.000000e+00  -3.156377e+01  0.000000e+00  0.000000e+00  0.000000e+00  0.000000e+00  0.000000e+00  5.032093e-01  9.669318e-02  5.036963e-01  0.000000e+00  0.000000e+00
1.527404e+01  1.000000e-16  1.000000e-16  5.123282e-03  0.000000e+00  -3.156740e+01  0.000000e+00  0.000000e+00  0.000000e+00  0.000000e+00  0.000000e+00  5.032765e-01  1.169835e-01  5.038659e-01  0.000000e+00  0.000000e+00
1.527501e+01  1.000000e-16  1.000000e-16  5.141877e-03  0.000000e+00  -3.157102e+01  0.000000e+00  0.000000e+00  0.000000e+00  0.000000e+00  0.000000e+00  5.031309e-01  1.178422e-01  5.037245e-01  0.000000e+00  0.000000e+00
1.527600e+01  1.000000e-16  1.000000e-16  5.035073e-03  0.000000e+00  -3.155003e+01  0.000000e+00  0.000000e+00  0.000000e+00  0.000000e+00  0.000000e+00  5.030061e-01  1.156500e-01  5.035885e-01  0.000000e+00  0.000000e+00
1.527702e+01  1.000000e-16  1.000000e-16  5.176683e-03  0.000000e+00  -3.157777e+01  0.000000e+00  0.000000e+00  0.000000e+00  0.000000e+00  0.000000e+00  5.030048e-01  1.153329e-01  5.035856e-01  0.000000e+00  0.000000e+00
1.527802e+01  1.000000e-16  1.000000e-16  5.151889e-03  0.000000e+00  -3.157297e+01  0.000000e+00  0.000000e+00  0.000000e+00  0.000000e+00  0.000000e+00  5.030045e-01  1.160312e-01  5.035888e-01  0.000000e+00  0.000000e+00
1.527901e+01  1.000000e-16  1.000000e-16  5.129957e-03  0.000000e+00  -3.156870e+01  0.000000e+00  0.000000e+00  0.000000e+00  0.000000e+00  0.000000e+00  5.031344e-01  1.008970e-01  5.036426e-01  0.000000e+00  0.000000e+00