Folder: HESEBScanTool/tmp/SEM[1]/XAFS/20185101/data/csv (part 6)

File: test_2int_2scans_Scan(1)2021-10-14T17:31:05.xdi
# XDI/1.0 SED_XAFS/0.9
# Column.1: energy eV
# Column.2: Ionization Chamber (IC) number 1
# Column.3: Ionization Chamber (IC) number 2
# Column.4: Ionization Chamber (IC) number 3
# Column.5: Transmission (log(IC1 current/ IC2 current))
# Column.6: Transmission Reference (log(IC2 current/IC3 current))
# Base.file_name: test_2int_2scans
# Element.edge: K
# Mono.name: Si 311
# Mono.d_spacing: 3.13553
# Beamline.name: XAFS/XRF Beamline (08-BM)
# Beamline.collimation: slits
# Beamline.focusing: no
# Beamline.harmonic_rejection: mirror coating VCM: Si, VFM: Pt
# Facility.name: SESAME Synchrotron-light
# Facility.energy: 2.50 GeV
# Facility.current: -0.0571458
# Facility.xray_source: SESAME Bending Magnet
# Scan.start_time: 2021_10_14T17_31_05
# Scan.end_time: 2021-10-14T17:31:10
# Scan.edge_energy: 99.889
# Scan.number: 1/2 -- intervals: 3, samples: 1
# Detector.IC1: 15cm  N2
# Detector.IC2: 30cm  N2
# Detector.IC3: 15cm  N2
# Element.symbol: Fe
# Sample.stoichiometry: NONE
# Sample.prep: Cu metal foil
# ///
# Experiment comments and remarks: NONE
# User comments and remarks: NONE
#----
#(1)energy   (2)IC1[V]   (3)IC2[V]   (4)IC3[V]   (5)TRANS   (6)TransRef
1.524994e+01  1.000000e-16  1.000000e-16  5.148075e-03  0.000000e+00  -3.157223e+01
1.525091e+01  1.000000e-16  1.000000e-16  5.010757e-03  0.000000e+00  -3.154519e+01
1.525201e+01  1.000000e-16  1.000000e-16  5.177160e-03  0.000000e+00  -3.157786e+01
1.525300e+01  1.000000e-16  1.000000e-16  5.005035e-03  0.000000e+00  -3.154405e+01
1.525399e+01  1.000000e-16  1.000000e-16  5.183597e-03  0.000000e+00  -3.157911e+01
1.525498e+01  1.000000e-16  1.000000e-16  5.151413e-03  0.000000e+00  -3.157288e+01
1.525600e+01  1.000000e-16  1.000000e-16  5.151413e-03  0.000000e+00  -3.157288e+01
1.525699e+01  1.000000e-16  1.000000e-16  5.135440e-03  0.000000e+00  -3.156977e+01
1.525798e+01  1.000000e-16  1.000000e-16  5.114699e-03  0.000000e+00  -3.156572e+01
1.525900e+01  1.000000e-16  1.000000e-16  5.002175e-03  0.000000e+00  -3.154348e+01
1.525999e+01  1.000000e-16  1.000000e-16  5.144738e-03  0.000000e+00  -3.157158e+01
1.526101e+01  1.000000e-16  1.000000e-16  5.146407e-03  0.000000e+00  -3.157190e+01
1.526200e+01  1.000000e-16  1.000000e-16  5.155227e-03  0.000000e+00  -3.157362e+01
1.526299e+01  1.000000e-16  1.000000e-16  5.127573e-03  0.000000e+00  -3.156824e+01
1.526398e+01  1.000000e-16  1.000000e-16  5.102540e-03  0.000000e+00  -3.156334e+01
1.526500e+01  1.000000e-16  1.000000e-16  5.129480e-03  0.000000e+00  -3.156861e+01
1.526599e+01  1.000000e-16  1.000000e-16  5.272520e-03  0.000000e+00  -3.159611e+01
1.526701e+01  1.000000e-16  1.000000e-16  5.059867e-03  0.000000e+00  -3.155495e+01
1.526803e+01  1.000000e-16  1.000000e-16  5.120421e-03  0.000000e+00  -3.156684e+01
1.526902e+01  1.000000e-16  1.000000e-16  5.227940e-03  0.000000e+00  -3.158762e+01
1.526999e+01  1.000000e-16  1.000000e-16  5.084661e-03  0.000000e+00  -3.155983e+01
1.527101e+01  1.000000e-16  1.000000e-16  5.139493e-03  0.000000e+00  -3.157056e+01
1.527203e+01  1.000000e-16  1.000000e-16  5.287301e-03  0.000000e+00  -3.159891e+01
1.527302e+01  1.000000e-16  1.000000e-16  5.075602e-03  0.000000e+00  -3.155805e+01
1.527402e+01  1.000000e-16  1.000000e-16  5.125427e-03  0.000000e+00  -3.156782e+01
1.527501e+01  1.000000e-16  1.000000e-16  5.130910e-03  0.000000e+00  -3.156889e+01
1.527600e+01  1.000000e-16  1.000000e-16  5.133295e-03  0.000000e+00  -3.156935e+01
1.527699e+01  1.000000e-16  1.000000e-16  5.105640e-03  0.000000e+00  -3.156395e+01
1.527799e+01  1.000000e-16  1.000000e-16  5.105640e-03  0.000000e+00  -3.156395e+01
1.527898e+01  1.000000e-16  1.000000e-16  5.105640e-03  0.000000e+00  -3.156395e+01

File: test_2int_2scans_Scan(1)2021_10_14T17_36_15.xdi
# XDI/1.0 SED_XAFS/0.9
# Column.1: energy eV
# Column.2: Ionization Chamber (IC) number 1
# Column.3: Ionization Chamber (IC) number 2
# Column.4: Ionization Chamber (IC) number 3
# Column.5: Transmission (log(IC1 current/ IC2 current))
# Column.6: Transmission Reference (log(IC2 current/IC3 current))
# Base.file_name: test_2int_2scans
# Element.edge: K
# Mono.name: Si 311
# Mono.d_spacing: 3.13553
# Beamline.name: XAFS/XRF Beamline (08-BM)
# Beamline.collimation: slits
# Beamline.focusing: no
# Beamline.harmonic_rejection: mirror coating VCM: Si, VFM: Pt
# Facility.name: SESAME Synchrotron-light
# Facility.energy: 2.50 GeV
# Facility.current: -0.0570103
# Facility.xray_source: SESAME Bending Magnet
# Scan.start_time: 2021-10-14T17:36:15
# Scan.end_time: 2021-10-14T17:36:21
# Scan.edge_energy: 99.889
# Scan.number: 1/2 -- intervals: 3, samples: 1
# Detector.IC1: 15cm  N2
# Detector.IC2: 30cm  N2
# Detector.IC3: 15cm  N2
# Element.symbol: Fe
# Sample.stoichiometry: NONE
# Sample.prep: Cu metal foil
# ///
# Experiment comments and remarks: NONE
# User comments and remarks: NONE
#----
#(1)energy   (2)IC1[V]   (3)IC2[V]   (4)IC3[V]   (5)TRANS   (6)TransRef
1.524992e+01  1.000000e-16  1.000000e-16  5.178829e-03  0.000000e+00  -3.157819e+01
1.525093e+01  1.000000e-16  1.000000e-16  5.250349e-03  0.000000e+00  -3.159190e+01
1.525198e+01  1.000000e-16  1.000000e-16  5.128049e-03  0.000000e+00  -3.156833e+01
1.525300e+01  1.000000e-16  1.000000e-16  5.125666e-03  0.000000e+00  -3.156787e+01
1.525399e+01  1.000000e-16  1.000000e-16  5.167624e-03  0.000000e+00  -3.157602e+01
1.525501e+01  1.000000e-16  1.000000e-16  5.167624e-03  0.000000e+00  -3.157602e+01
1.525600e+01  1.000000e-16  1.000000e-16  5.197186e-03  0.000000e+00  -3.158172e+01
1.525699e+01  1.000000e-16  1.000000e-16  5.193848e-03  0.000000e+00  -3.158108e+01
1.525798e+01  1.000000e-16  1.000000e-16  5.348569e-03  0.000000e+00  -3.161044e+01
1.525903e+01  1.000000e-16  1.000000e-16  5.269898e-03  0.000000e+00  -3.159562e+01
1.525999e+01  1.000000e-16  1.000000e-16  5.177876e-03  0.000000e+00  -3.157800e+01
1.526101e+01  1.000000e-16  1.000000e-16  5.123759e-03  0.000000e+00  -3.156749e+01
1.526200e+01  1.000000e-16  1.000000e-16  5.109931e-03  0.000000e+00  -3.156479e+01
1.526299e+01  1.000000e-16  1.000000e-16  5.163571e-03  0.000000e+00  -3.157523e+01
1.526401e+01  1.000000e-16  1.000000e-16  5.235568e-03  0.000000e+00  -3.158908e+01
1.526497e+01  1.000000e-16  1.000000e-16  5.067019e-03  0.000000e+00  -3.155636e+01
1.526599e+01  1.000000e-16  1.000000e-16  5.255355e-03  0.000000e+00  -3.159285e+01
1.526701e+01  1.000000e-16  1.000000e-16  5.047232e-03  0.000000e+00  -3.155245e+01
1.526800e+01  1.000000e-16  1.000000e-16  5.047232e-03  0.000000e+00  -3.155245e+01
1.526900e+01  1.000000e-16  1.000000e-16  5.099918e-03  0.000000e+00  -3.156283e+01
1.526999e+01  1.000000e-16  1.000000e-16  5.190749e-03  0.000000e+00  -3.158048e+01
1.527101e+01  1.000000e-16  1.000000e-16  5.184789e-03  0.000000e+00  -3.157934e+01
1.527197e+01  1.000000e-16  1.000000e-16  5.144499e-03  0.000000e+00  -3.157153e+01
1.527302e+01  1.000000e-16  1.000000e-16  5.200523e-03  0.000000e+00  -3.158237e+01
1.527399e+01  1.000000e-16  1.000000e-16  5.017194e-03  0.000000e+00  -3.154648e+01
1.527498e+01  1.000000e-16  1.000000e-16  5.108262e-03  0.000000e+00  -3.156447e+01
1.527597e+01  1.000000e-16  1.000000e-16  5.107070e-03  0.000000e+00  -3.156423e+01
1.527702e+01  1.000000e-16  1.000000e-16  5.150459e-03  0.000000e+00  -3.157269e+01
1.527799e+01  1.000000e-16  1.000000e-16  5.106355e-03  0.000000e+00  -3.156409e+01
1.527904e+01  1.000000e-16  1.000000e-16  5.200762e-03  0.000000e+00  -3.158241e+01

File: test_2int_2scans_Scan(2)2021-10-14T15:34:14.xdi
# XDI/1.0 SED_XAFS/0.9
# Column.1: energy eV
# Column.2: Ionization Chamber (IC) number 1
# Column.3: Ionization Chamber (IC) number 2
# Column.4: Ionization Chamber (IC) number 3
# Column.5: Transmission (log(IC1 current/ IC2 current))
# Column.6: Transmission Reference (log(IC2 current/IC3 current))
# Column.7: KETEK-If
# Column.8: KETEK-FLUOR
# Column.9: KETEK-ROI_0[c/s]
# Column.10: KETEK-ROI_1[c/s]
# Column.11: KETEK-ROI_2[c/s]
# Column.12: KETEK-e-time[sec]
# Column.13: KETEK-DEADTIME[%]
# Column.14: KETEK-INT_TIME[sec]
# Column.15: KETEK-OCR
# Column.16: KETEK-ICR
# Base.file_name: test_2int_2scans
# Element.edge: K
# Mono.name: Si 111
# Mono.d_spacing: 3.13553
# Beamline.name: XAFS/XRF Beamline (08-BM)
# Beamline.collimation: slits
# Beamline.focusing: no
# Beamline.harmonic_rejection: mirror coating VCM: Si, VFM: Pt
# Facility.name: SESAME Synchrotron-light
# Facility.energy: 2.50 GeV
# Facility.current: -0.0628683
# Facility.xray_source: SESAME Bending Magnet
# Scan.start_time: 2021_10_14T15_34_14
# Scan.end_time: 2021-10-14T15:35:56
# Scan.number: 2/2 -- interval: 1/3, sample: 1/1
# Detector.IC1: 15cm  N2
# Detector.IC2: 30cm  N2
# Detector.IC3: 15cm  N2
# Element.symbol: Fe
# Sample.prep: Cu metal foil
# ///
# Cu foil Room Temperature
# measured at beamline 08-BM XAFS/XRF Beamline
#----
#(1)energy   (2)IC1[V]   (3)IC2[V]   (4)IC3[V]   (5)TRANS   (6)TransRef   (7)KETEK-If   (8)KETEK-FLUOR   (9)KETEK-ROI_0[c/s]   (10)KETEK-ROI_1[c/s]   (11)KETEK-ROI_2[c/s]   (12)KETEK-e-time[sec]   (13)KETEK-DEADTIME[%]   (14)KETEK-INT_TIME[sec]   (15)KETEK-OCR   (16)KETEK-ICR
1.524994e+01  1.000000e-16  1.000000e-16  5.211012e-03  0.000000e+00  -3.158438e+01  0.000000e+00  0.000000e+00  0.000000e+00  0.000000e+00  0.000000e+00  5.031350e-01  9.353342e-02  5.036061e-01  0.000000e+00  0.000000e+00
1.525096e+01  1.000000e-16  1.000000e-16  5.137824e-03  0.000000e+00  -3.157024e+01  0.000000e+00  0.000000e+00  0.000000e+00  0.000000e+00  0.000000e+00  5.030317e-01  1.155806e-01  5.036138e-01  0.000000e+00  0.000000e+00
1.525204e+01  1.000000e-16  1.000000e-16  5.094912e-03  0.000000e+00  -3.156185e+01  0.000000e+00  0.000000e+00  0.000000e+00  0.000000e+00  0.000000e+00  5.031798e-01  1.017129e-01  5.036922e-01  0.000000e+00  0.000000e+00
1.525300e+01  1.000000e-16  1.000000e-16  5.094436e-03  0.000000e+00  -3.156176e+01  0.000000e+00  0.000000e+00  0.000000e+00  0.000000e+00  0.000000e+00  5.028237e-01  1.165808e-01  5.034106e-01  0.000000e+00  0.000000e+00
1.525399e+01  1.000000e-16  1.000000e-16  5.171916e-03  0.000000e+00  -3.157685e+01  0.000000e+00  0.000000e+00  0.000000e+00  0.000000e+00  0.000000e+00  5.029933e-01  1.149547e-01  5.035722e-01  0.000000e+00  0.000000e+00
1.525501e+01  1.000000e-16  1.000000e-16  5.256070e-03  0.000000e+00  -3.159299e+01  0.000000e+00  0.000000e+00  0.000000e+00  0.000000e+00  0.000000e+00  5.030800e-01  1.156965e-01  5.036627e-01  0.000000e+00  0.000000e+00
1.525600e+01  1.000000e-16  1.000000e-16  4.974997e-03  0.000000e+00  -3.153803e+01  0.000000e+00  0.000000e+00  0.000000e+00  0.000000e+00  0.000000e+00  5.031632e-01  1.165657e-01  5.037504e-01  0.000000e+00  0.000000e+00
1.525699e+01  1.000000e-16  1.000000e-16  5.221264e-03  0.000000e+00  -3.158635e+01  0.000000e+00  0.000000e+00  0.000000e+00  0.000000e+00  0.000000e+00  5.031478e-01  1.166327e-01  5.037354e-01  0.000000e+00  0.000000e+00
1.525801e+01  1.000000e-16  1.000000e-16  5.221264e-03  0.000000e+00  -3.158635e+01  0.000000e+00  0.000000e+00  0.000000e+00  0.000000e+00  0.000000e+00  5.028093e-01  1.058525e-01  5.033421e-01  0.000000e+00  0.000000e+00
1.525903e+01  1.000000e-16  1.000000e-16  5.121136e-03  0.000000e+00  -3.156698e+01  0.000000e+00  0.000000e+00  0.000000e+00  0.000000e+00  0.000000e+00  5.031594e-01  1.022248e-01  5.036742e-01  0.000000e+00  3.974884e+00
1.525999e+01  1.000000e-16  1.000000e-16  5.268706e-03  0.000000e+00  -3.159539e+01  0.000000e+00  0.000000e+00  0.000000e+00  0.000000e+00  0.000000e+00  9.235190e-01  4.148351e-01  9.273661e-01  0.000000e+00  1.082815e+00
1.526101e+01  1.000000e-16  1.000000e-16  5.152128e-03  0.000000e+00  -3.157302e+01  0.000000e+00  0.000000e+00  0.000000e+00  0.000000e+00  0.000000e+00  1.005845e+00  1.551704e-01  1.007409e+00  0.000000e+00  1.988377e+00
1.526203e+01  1.000000e-16  1.000000e-16  5.106117e-03  0.000000e+00  -3.156405e+01  0.000000e+00  0.000000e+00  0.000000e+00  0.000000e+00  0.000000e+00  1.006527e+00  1.172403e-01  1.007708e+00  0.000000e+00  0.000000e+00
1.526302e+01  1.000000e-16  1.000000e-16  5.189795e-03  0.000000e+00  -3.158030e+01  0.000000e+00  0.000000e+00  0.000000e+00  0.000000e+00  0.000000e+00  1.006687e+00  1.009820e-01  1.007704e+00  0.000000e+00  0.000000e+00
1.526401e+01  1.000000e-16  1.000000e-16  5.237713e-03  0.000000e+00  -3.158949e+01  0.000000e+00  0.000000e+00  0.000000e+00  0.000000e+00  0.000000e+00  1.006265e+00  9.705709e-02  1.007242e+00  0.000000e+00  0.000000e+00
1.526503e+01  1.000000e-16  1.000000e-16  5.164763e-03  0.000000e+00  -3.157547e+01  0.000000e+00  0.000000e+00  0.000000e+00  0.000000e+00  0.000000e+00  1.006500e+00  1.157208e-01  1.007667e+00  0.000000e+00  0.000000e+00
1.526599e+01  1.000000e-16  1.000000e-16  5.167624e-03  0.000000e+00  -3.157602e+01  0.000000e+00  0.000000e+00  0.000000e+00  0.000000e+00  0.000000e+00  1.006289e+00  1.019105e-01  1.007315e+00  0.000000e+00  0.000000e+00
1.526704e+01  1.000000e-16  1.000000e-16  5.209821e-03  0.000000e+00  -3.158415e+01  0.000000e+00  0.000000e+00  0.000000e+00  0.000000e+00  0.000000e+00  1.006296e+00  1.023540e-01  1.007327e+00  0.000000e+00  0.000000e+00
1.526800e+01  1.000000e-16  1.000000e-16  5.200523e-03  0.000000e+00  -3.158237e+01  0.000000e+00  0.000000e+00  0.000000e+00  0.000000e+00  0.000000e+00  1.006269e+00  1.159695e-01  1.007437e+00  0.000000e+00  0.000000e+00
1.526902e+01  1.000000e-16  1.000000e-16  5.099203e-03  0.000000e+00  -3.156269e+01  0.000000e+00  0.000000e+00  0.000000e+00  0.000000e+00  0.000000e+00  1.006451e+00  1.005297e-01  1.007464e+00  0.000000e+00  0.000000e+00
1.527002e+01  1.000000e-16  1.000000e-16  5.174060e-03  0.000000e+00  -3.157726e+01  0.000000e+00  0.000000e+00  0.000000e+00  0.000000e+00  0.000000e+00  4.272358e-01  4.749963e-01  4.292749e-01  0.000000e+00  0.000000e+00
1.527101e+01  1.000000e-16  1.000000e-16  5.169293e-03  0.000000e+00  -3.157634e+01  0.000000e+00  0.000000e+00  0.000000e+00  0.000000e+00  0.000000e+00  5.025798e-01  2.253338e-01  5.037149e-01  0.000000e+00  0.000000e+00
1.527203e+01  1.000000e-16  1.000000e-16  5.042702e-03  0.000000e+00  -3.155155e+01  0.000000e+00  0.000000e+00  0.000000e+00  0.000000e+00  0.000000e+00  5.028746e-01  1.165690e-01  5.034614e-01  0.000000e+00  0.000000e+00
1.527302e+01  1.000000e-16  1.000000e-16  5.267037e-03  0.000000e+00  -3.159507e+01  0.000000e+00  0.000000e+00  0.000000e+00  0.000000e+00  0.000000e+00  5.030099e-01  1.154587e-01  5.035914e-01  0.000000e+00  0.000000e+00
1.527402e+01  1.000000e-16  1.000000e-16  5.178113e-03  0.000000e+00  -3.157805e+01  0.000000e+00  0.000000e+00  0.000000e+00  0.000000e+00  0.000000e+00  5.030787e-01  1.170929e-01  5.036685e-01  0.000000e+00  0.000000e+00
1.527501e+01  1.000000e-16  1.000000e-16  5.115414e-03  0.000000e+00  -3.156586e+01  0.000000e+00  0.000000e+00  0.000000e+00  0.000000e+00  0.000000e+00  5.030163e-01  1.024443e-01  5.035322e-01  0.000000e+00  0.000000e+00
1.527600e+01  1.000000e-16  1.000000e-16  5.164048e-03  0.000000e+00  -3.157533e+01  0.000000e+00  0.000000e+00  0.000000e+00  0.000000e+00  0.000000e+00  5.031984e-01  1.166210e-01  5.037859e-01  0.000000e+00  0.000000e+00
1.527705e+01  1.000000e-16  1.000000e-16  5.145930e-03  0.000000e+00  -3.157181e+01  0.000000e+00  0.000000e+00  0.000000e+00  0.000000e+00  0.000000e+00  5.030010e-01  1.006697e-01  5.035078e-01  0.000000e+00  0.000000e+00
1.527799e+01  1.000000e-16  1.000000e-16  5.053192e-03  0.000000e+00  -3.155363e+01  0.000000e+00  0.000000e+00  0.000000e+00  0.000000e+00  0.000000e+00  5.028595e-01  1.168899e-01  5.034480e-01  0.000000e+00  0.000000e+00
1.527904e+01  1.000000e-16  1.000000e-16  5.157134e-03  0.000000e+00  -3.157399e+01  0.000000e+00  0.000000e+00  0.000000e+00  0.000000e+00  0.000000e+00  5.029907e-01  1.183828e-01  5.035869e-01  0.000000e+00  0.000000e+00

File: test_2int_2scans_Scan(2)2021-10-14T17:31:05.xdi
# XDI/1.0 SED_XAFS/0.9
# Column.1: energy eV
# Column.2: Ionization Chamber (IC) number 1
# Column.3: Ionization Chamber (IC) number 2
# Column.4: Ionization Chamber (IC) number 3
# Column.5: Transmission (log(IC1 current/ IC2 current))
# Column.6: Transmission Reference (log(IC2 current/IC3 current))
# Base.file_name: test_2int_2scans
# Element.edge: K
# Mono.name: Si 311
# Mono.d_spacing: 3.13553
# Beamline.name: XAFS/XRF Beamline (08-BM)
# Beamline.collimation: slits
# Beamline.focusing: no
# Beamline.harmonic_rejection: mirror coating VCM: Si, VFM: Pt
# Facility.name: SESAME Synchrotron-light
# Facility.energy: 2.50 GeV
# Facility.current: -0.0565278
# Facility.xray_source: SESAME Bending Magnet
# Scan.start_time: 2021_10_14T17_31_05
# Scan.end_time: 2021-10-14T17:31:57
# Scan.edge_energy: 99.889
# Scan.number: 2/2 -- intervals: 3, samples: 1
# Detector.IC1: 15cm  N2
# Detector.IC2: 30cm  N2
# Detector.IC3: 15cm  N2
# Element.symbol: Fe
# Sample.stoichiometry: NONE
# Sample.prep: Cu metal foil
# ///
# Experiment comments and remarks: NONE
# User comments and remarks: NONE
#----
#(1)energy   (2)IC1[V]   (3)IC2[V]   (4)IC3[V]   (5)TRANS   (6)TransRef
1.525000e+01  1.000000e-16  1.000000e-16  5.292545e-03  0.000000e+00  -3.159991e+01
1.525093e+01  1.000000e-16  1.000000e-16  5.187411e-03  0.000000e+00  -3.157984e+01
1.525198e+01  1.000000e-16  1.000000e-16  5.114461e-03  0.000000e+00  -3.156568e+01
1.525300e+01  1.000000e-16  1.000000e-16  5.114461e-03  0.000000e+00  -3.156568e+01
1.525399e+01  1.000000e-16  1.000000e-16  5.179782e-03  0.000000e+00  -3.157837e+01
1.525504e+01  1.000000e-16  1.000000e-16  5.145452e-03  0.000000e+00  -3.157172e+01
1.525600e+01  1.000000e-16  1.000000e-16  5.193610e-03  0.000000e+00  -3.158104e+01
1.525699e+01  1.000000e-16  1.000000e-16  4.987155e-03  0.000000e+00  -3.154047e+01
1.525798e+01  1.000000e-16  1.000000e-16  5.275142e-03  0.000000e+00  -3.159661e+01
1.525900e+01  1.000000e-16  1.000000e-16  5.196232e-03  0.000000e+00  -3.158154e+01
1.525999e+01  1.000000e-16  1.000000e-16  5.119229e-03  0.000000e+00  -3.156661e+01
1.526101e+01  1.000000e-16  1.000000e-16  5.196947e-03  0.000000e+00  -3.158168e+01
1.526200e+01  1.000000e-16  1.000000e-16  5.144738e-03  0.000000e+00  -3.157158e+01
1.526299e+01  1.000000e-16  1.000000e-16  5.105401e-03  0.000000e+00  -3.156391e+01
1.526398e+01  1.000000e-16  1.000000e-16  5.096104e-03  0.000000e+00  -3.156208e+01
1.526497e+01  1.000000e-16  1.000000e-16  5.226509e-03  0.000000e+00  -3.158735e+01
1.526602e+01  1.000000e-16  1.000000e-16  5.123759e-03  0.000000e+00  -3.156749e+01
1.526704e+01  1.000000e-16  1.000000e-16  5.119706e-03  0.000000e+00  -3.156670e+01
1.526798e+01  1.000000e-16  1.000000e-16  5.206722e-03  0.000000e+00  -3.158356e+01
1.526905e+01  1.000000e-16  1.000000e-16  5.247488e-03  0.000000e+00  -3.159136e+01
1.527002e+01  1.000000e-16  1.000000e-16  5.110885e-03  0.000000e+00  -3.156498e+01
1.527104e+01  1.000000e-16  1.000000e-16  5.198378e-03  0.000000e+00  -3.158195e+01
1.527200e+01  1.000000e-16  1.000000e-16  5.090621e-03  0.000000e+00  -3.156101e+01
1.527302e+01  1.000000e-16  1.000000e-16  5.120898e-03  0.000000e+00  -3.156694e+01
1.527399e+01  1.000000e-16  1.000000e-16  5.068211e-03  0.000000e+00  -3.155659e+01
1.527501e+01  1.000000e-16  1.000000e-16  5.068211e-03  0.000000e+00  -3.155659e+01
1.527600e+01  1.000000e-16  1.000000e-16  5.071310e-03  0.000000e+00  -3.155721e+01
1.527699e+01  1.000000e-16  1.000000e-16  5.272758e-03  0.000000e+00  -3.159616e+01
1.527799e+01  1.000000e-16  1.000000e-16  5.127096e-03  0.000000e+00  -3.156815e+01
1.527898e+01  1.000000e-16  1.000000e-16  5.114699e-03  0.000000e+00  -3.156572e+01

File: test_2int_2scans_Scan(2)2021_10_14T17_36_15.xdi
# XDI/1.0 SED_XAFS/0.9
# Column.1: energy eV
# Column.2: Ionization Chamber (IC) number 1
# Column.3: Ionization Chamber (IC) number 2
# Column.4: Ionization Chamber (IC) number 3
# Column.5: Transmission (log(IC1 current/ IC2 current))
# Column.6: Transmission Reference (log(IC2 current/IC3 current))
# Base.file_name: test_2int_2scans
# Element.edge: K
# Mono.name: Si 311
# Mono.d_spacing: 3.13553
# Beamline.name: XAFS/XRF Beamline (08-BM)
# Beamline.collimation: slits
# Beamline.focusing: no
# Beamline.harmonic_rejection: mirror coating VCM: Si, VFM: Pt
# Facility.name: SESAME Synchrotron-light
# Facility.energy: 2.50 GeV
# Facility.current: -0.0577536
# Facility.xray_source: SESAME Bending Magnet
# Scan.start_time: 2021-10-14T17:36:15
# Scan.end_time: 2021-10-14T17:37:07
# Scan.edge_energy: 99.889
# Scan.number: 2/2 -- intervals: 3, samples: 1
# Detector.IC1: 15cm  N2
# Detector.IC2: 30cm  N2
# Detector.IC3: 15cm  N2
# Element.symbol: Fe
# Sample.stoichiometry: NONE
# Sample.prep: Cu metal foil
# ///
# Experiment comments and remarks: NONE
# User comments and remarks: NONE
#----
#(1)energy   (2)IC1[V]   (3)IC2[V]   (4)IC3[V]   (5)TRANS   (6)TransRef
1.525000e+01  1.000000e-16  1.000000e-16  5.132818e-03  0.000000e+00  -3.156926e+01
1.525093e+01  1.000000e-16  1.000000e-16  5.091337e-03  0.000000e+00  -3.156115e+01
1.525198e+01  1.000000e-16  1.000000e-16  5.153558e-03  0.000000e+00  -3.157329e+01
1.525300e+01  1.000000e-16  1.000000e-16  5.099441e-03  0.000000e+00  -3.156274e+01
1.525399e+01  1.000000e-16  1.000000e-16  5.146645e-03  0.000000e+00  -3.157195e+01
1.525501e+01  1.000000e-16  1.000000e-16  4.986679e-03  0.000000e+00  -3.154038e+01
1.525600e+01  1.000000e-16  1.000000e-16  5.102540e-03  0.000000e+00  -3.156334e+01
1.525699e+01  1.000000e-16  1.000000e-16  5.154035e-03  0.000000e+00  -3.157339e+01
1.525798e+01  1.000000e-16  1.000000e-16  5.169531e-03  0.000000e+00  -3.157639e+01
1.525900e+01  1.000000e-16  1.000000e-16  5.134725e-03  0.000000e+00  -3.156963e+01
1.525999e+01  1.000000e-16  1.000000e-16  5.131149e-03  0.000000e+00  -3.156894e+01
1.526104e+01  1.000000e-16  1.000000e-16  5.126619e-03  0.000000e+00  -3.156805e+01
1.526200e+01  1.000000e-16  1.000000e-16  5.193848e-03  0.000000e+00  -3.158108e+01
1.526299e+01  1.000000e-16  1.000000e-16  5.255832e-03  0.000000e+00  -3.159294e+01
1.526401e+01  1.000000e-16  1.000000e-16  5.171677e-03  0.000000e+00  -3.157680e+01
1.526500e+01  1.000000e-16  1.000000e-16  5.168578e-03  0.000000e+00  -3.157620e+01
1.526602e+01  1.000000e-16  1.000000e-16  5.168578e-03  0.000000e+00  -3.157620e+01
1.526698e+01  1.000000e-16  1.000000e-16  5.175729e-03  0.000000e+00  -3.157759e+01
1.526803e+01  1.000000e-16  1.000000e-16  5.216972e-03  0.000000e+00  -3.158552e+01
1.526902e+01  1.000000e-16  1.000000e-16  5.189796e-03  0.000000e+00  -3.158030e+01
1.527002e+01  1.000000e-16  1.000000e-16  5.276096e-03  0.000000e+00  -3.159679e+01
1.527101e+01  1.000000e-16  1.000000e-16  5.152128e-03  0.000000e+00  -3.157302e+01
1.527200e+01  1.000000e-16  1.000000e-16  5.175014e-03  0.000000e+00  -3.157745e+01
1.527302e+01  1.000000e-16  1.000000e-16  5.123043e-03  0.000000e+00  -3.156735e+01
1.527399e+01  1.000000e-16  1.000000e-16  5.123043e-03  0.000000e+00  -3.156735e+01
1.527498e+01  1.000000e-16  1.000000e-16  5.051523e-03  0.000000e+00  -3.155330e+01
1.527597e+01  1.000000e-16  1.000000e-16  5.075125e-03  0.000000e+00  -3.155796e+01
1.527697e+01  1.000000e-16  1.000000e-16  5.134010e-03  0.000000e+00  -3.156949e+01
1.527802e+01  1.000000e-16  1.000000e-16  5.130910e-03  0.000000e+00  -3.156889e+01
1.527901e+01  1.000000e-16  1.000000e-16  5.307565e-03  0.000000e+00  -3.160274e+01