Folder: HESEBScanTool/tmp/SEM[1]/XAFS/20185101/data/csv (part 4)

File: Test settling time _Scan(1)2021_10_18T12_25_23.xdi
# XDI/1.0 SED_XAFS/0.9
# Column.1: energy eV
# Column.2: Ionization Chamber (IC) number 1
# Column.3: Ionization Chamber (IC) number 2
# Column.4: Ionization Chamber (IC) number 3
# Column.5: Transmission (log(IC1 current/ IC2 current))
# Column.6: Transmission Reference (log(IC2 current/IC3 current))
# Column.7: KETEK-If
# Column.8: KETEK-FLUOR
# Column.9: KETEK-ROI_0[c/s]
# Column.10: KETEK-ROI_1[c/s]
# Column.11: KETEK-ROI_2[c/s]
# Column.12: KETEK-e-time[sec]
# Column.13: KETEK-DEADTIME[%]
# Column.14: KETEK-INT_TIME[sec]
# Column.15: KETEK-OCR
# Column.16: KETEK-ICR
# Base.file_name: Test settling time
# Element.edge: K
# Mono.name: Si 111
# Mono.d_spacing: 3.13553
# Mono.settling_time: 1.2
# Beamline.name: XAFS/XRF Beamline (08-BM)
# Beamline.collimation: slits
# Beamline.focusing: no
# Beamline.harmonic_rejection: mirror coating VCM: Si, VFM: Si
# Facility.name: SESAME Synchrotron-light
# Facility.energy: 2.50 GeV
# Facility.current: 299.583
# Facility.xray_source: SESAME Bending Magnet
# Scan.start_time: 2021-10-18T12:25:23
# Scan.end_time: 2021-10-18T12:25:30
# Scan.edge_energy: 25000
# Scan.number: 1/1 -- intervals: 1, samples: 1
# Detector.IC1: 15cm  12
# Detector.IC2: 30cm  2
# Detector.IC3: 15cm  3
# Element.symbol: Cu
# Sample.stoichiometry: NONE
# Sample.prep: fsdf
# ///
# Experiment comments and remarks: NONE
# User comments and remarks: NONE
#----
#(1)energy   (2)IC1[V]   (3)IC2[V]   (4)IC3[V]   (5)TRANS   (6)TransRef   (7)KETEK-If   (8)KETEK-FLUOR   (9)KETEK-ROI_0[c/s]   (10)KETEK-ROI_1[c/s]   (11)KETEK-ROI_2[c/s]   (12)KETEK-e-time[sec]   (13)KETEK-DEADTIME[%]   (14)KETEK-INT_TIME[sec]   (15)KETEK-OCR   (16)KETEK-ICR
1.524997e+01  1.000000e-16  1.000000e-16  5.037696e-03  0.000000e+00  -3.155056e+01  0.000000e+00  0.000000e+00  0.000000e+00  0.000000e+00  0.000000e+00  4.369613e-01  4.605554e-01  4.389830e-01  0.000000e+00  0.000000e+00
1.525093e+01  1.000000e-16  1.000000e-16  5.214350e-03  0.000000e+00  -3.158502e+01  0.000000e+00  0.000000e+00  0.000000e+00  0.000000e+00  0.000000e+00  5.028224e-01  1.119459e-01  5.033859e-01  0.000000e+00  0.000000e+00
1.525201e+01  1.000000e-16  1.000000e-16  4.961885e-03  0.000000e+00  -3.153539e+01  0.000000e+00  0.000000e+00  0.000000e+00  0.000000e+00  0.000000e+00  5.033011e-01  1.120299e-01  5.038656e-01  0.000000e+00  0.000000e+00
1.525300e+01  1.000000e-16  1.000000e-16  5.072741e-03  0.000000e+00  -3.155749e+01  0.000000e+00  0.000000e+00  0.000000e+00  0.000000e+00  0.000000e+00  5.031904e-01  1.122449e-01  5.037558e-01  0.000000e+00  0.000000e+00
1.525402e+01  1.000000e-16  1.000000e-16  5.051046e-03  0.000000e+00  -3.155320e+01  0.000000e+00  0.000000e+00  0.000000e+00  0.000000e+00  0.000000e+00  5.030285e-01  9.552155e-02  5.035094e-01  0.000000e+00  0.000000e+00
1.525504e+01  1.000000e-16  1.000000e-16  5.060106e-03  0.000000e+00  -3.155499e+01  0.000000e+00  0.000000e+00  0.000000e+00  0.000000e+00  0.000000e+00  5.031072e-01  1.109941e-01  5.036662e-01  0.000000e+00  0.000000e+00
1.525600e+01  1.000000e-16  1.000000e-16  4.939237e-03  0.000000e+00  -3.153082e+01  0.000000e+00  0.000000e+00  0.000000e+00  0.000000e+00  0.000000e+00  5.032902e-01  9.756606e-02  5.037818e-01  0.000000e+00  0.000000e+00
1.525699e+01  1.000000e-16  1.000000e-16  5.042464e-03  0.000000e+00  -3.155150e+01  0.000000e+00  0.000000e+00  0.000000e+00  0.000000e+00  0.000000e+00  5.028378e-01  1.117520e-01  5.034003e-01  0.000000e+00  0.000000e+00
1.525803e+01  1.000000e-16  1.000000e-16  5.162379e-03  0.000000e+00  -3.157500e+01  0.000000e+00  0.000000e+00  0.000000e+00  0.000000e+00  0.000000e+00  5.030115e-01  1.105709e-01  5.035683e-01  0.000000e+00  0.000000e+00
1.525900e+01  1.000000e-16  1.000000e-16  4.994546e-03  0.000000e+00  -3.154195e+01  0.000000e+00  0.000000e+00  0.000000e+00  0.000000e+00  0.000000e+00  5.028560e-01  1.306022e-01  5.035136e-01  0.000000e+00  0.000000e+00

File: Test settling time _Scan(1)2021_10_18T14_14_59.xdi
# XDI/1.0 SED_XAFS/0.9
# Column.1: energy eV
# Column.2: Ionization Chamber (IC) number 1
# Column.3: Ionization Chamber (IC) number 2
# Column.4: Ionization Chamber (IC) number 3
# Column.5: Transmission (log(IC1 current/ IC2 current))
# Column.6: Transmission Reference (log(IC2 current/IC3 current))
# Column.7: KETEK-If
# Column.8: KETEK-FLUOR
# Column.9: KETEK-ROI_0[c/s]
# Column.10: KETEK-ROI_1[c/s]
# Column.11: KETEK-ROI_2[c/s]
# Column.12: KETEK-e-time[sec]
# Column.13: KETEK-DEADTIME[%]
# Column.14: KETEK-INT_TIME[sec]
# Column.15: KETEK-OCR
# Column.16: KETEK-ICR
# Base.file_name: Test settling time
# Element.edge: K
# Mono.name: Si 111
# Mono.d_spacing: 3.13553
# Mono.settling_time: 5.5
# Beamline.name: XAFS/XRF Beamline (08-BM)
# Beamline.collimation: slits
# Beamline.focusing: no
# Beamline.harmonic_rejection: mirror coating VCM: Si, VFM: Si
# Facility.name: SESAME Synchrotron-light
# Facility.energy: 2.50 GeV
# Facility.current: 20.4714
# Facility.xray_source: SESAME Bending Magnet
# Scan.start_time: 2021-10-18T14:14:59
# Scan.end_time: 2021-10-18T14:15:09
# Scan.edge_energy: 25000
# Scan.number: 1/1 -- intervals: 1, samples: 1
# Detector.IC1: 15cm  12
# Detector.IC2: 30cm  2
# Detector.IC3: 15cm  3
# Element.symbol: Cu
# Sample.stoichiometry: NONE
# Sample.prep: fsdf
# ///
# Experiment comments and remarks: NONE
# User comments and remarks: NONE
#----
#(1)energy   (2)IC1[V]   (3)IC2[V]   (4)IC3[V]   (5)TRANS   (6)TransRef   (7)KETEK-If   (8)KETEK-FLUOR   (9)KETEK-ROI_0[c/s]   (10)KETEK-ROI_1[c/s]   (11)KETEK-ROI_2[c/s]   (12)KETEK-e-time[sec]   (13)KETEK-DEADTIME[%]   (14)KETEK-INT_TIME[sec]   (15)KETEK-OCR   (16)KETEK-ICR
1.524994e+01  1.000000e-16  1.000000e-16  5.054622e-03  0.000000e+00  -3.155391e+01  0.000000e+00  0.000000e+00  0.000000e+00  0.000000e+00  0.000000e+00  4.378355e-01  4.649985e-01  4.398810e-01  0.000000e+00  0.000000e+00
1.525091e+01  1.000000e-16  1.000000e-16  5.068449e-03  0.000000e+00  -3.155664e+01  0.000000e+00  0.000000e+00  0.000000e+00  0.000000e+00  0.000000e+00  5.031536e-01  9.714820e-02  5.036429e-01  0.000000e+00  0.000000e+00
1.525201e+01  1.000000e-16  1.000000e-16  5.052715e-03  0.000000e+00  -3.155353e+01  0.000000e+00  0.000000e+00  0.000000e+00  0.000000e+00  0.000000e+00  5.028934e-01  1.128825e-01  5.034618e-01  0.000000e+00  0.000000e+00
1.525300e+01  1.000000e-16  1.000000e-16  5.054861e-03  0.000000e+00  -3.155396e+01  0.000000e+00  0.000000e+00  0.000000e+00  0.000000e+00  0.000000e+00  5.031318e-01  1.106079e-01  5.036890e-01  0.000000e+00  0.000000e+00
1.525399e+01  1.000000e-16  1.000000e-16  4.832672e-03  0.000000e+00  -3.150901e+01  0.000000e+00  0.000000e+00  0.000000e+00  0.000000e+00  0.000000e+00  5.031690e-01  1.125669e-01  5.037360e-01  0.000000e+00  0.000000e+00
1.525506e+01  1.000000e-16  1.000000e-16  5.028875e-03  0.000000e+00  -3.154880e+01  0.000000e+00  0.000000e+00  0.000000e+00  0.000000e+00  0.000000e+00  5.032106e-01  9.117085e-02  5.036698e-01  0.000000e+00  0.000000e+00
1.525600e+01  1.000000e-16  1.000000e-16  4.983579e-03  0.000000e+00  -3.153975e+01  0.000000e+00  0.000000e+00  0.000000e+00  0.000000e+00  0.000000e+00  5.028653e-01  1.123173e-01  5.034307e-01  0.000000e+00  0.000000e+00
1.525699e+01  1.000000e-16  1.000000e-16  5.053669e-03  0.000000e+00  -3.155372e+01  0.000000e+00  0.000000e+00  0.000000e+00  0.000000e+00  0.000000e+00  5.029507e-01  9.769536e-02  5.034426e-01  0.000000e+00  0.000000e+00
1.525806e+01  1.000000e-16  1.000000e-16  4.980241e-03  0.000000e+00  -3.153908e+01  0.000000e+00  0.000000e+00  0.000000e+00  0.000000e+00  0.000000e+00  5.030016e-01  1.132391e-01  5.035718e-01  0.000000e+00  0.000000e+00
1.525900e+01  1.000000e-16  1.000000e-16  5.044132e-03  0.000000e+00  -3.155183e+01  0.000000e+00  0.000000e+00  0.000000e+00  0.000000e+00  0.000000e+00  5.029946e-01  9.895673e-02  5.034928e-01  0.000000e+00  0.000000e+00

File: Test settling time _Scan(1)2021_10_18T14_22_23.xdi
# XDI/1.0 SED_XAFS/0.9
# Column.1: energy eV
# Column.2: Ionization Chamber (IC) number 1
# Column.3: Ionization Chamber (IC) number 2
# Column.4: Ionization Chamber (IC) number 3
# Column.5: Transmission (log(IC1 current/ IC2 current))
# Column.6: Transmission Reference (log(IC2 current/IC3 current))
# Column.7: KETEK-If
# Column.8: KETEK-FLUOR
# Column.9: KETEK-ROI_0[c/s]
# Column.10: KETEK-ROI_1[c/s]
# Column.11: KETEK-ROI_2[c/s]
# Column.12: KETEK-e-time[sec]
# Column.13: KETEK-DEADTIME[%]
# Column.14: KETEK-INT_TIME[sec]
# Column.15: KETEK-OCR
# Column.16: KETEK-ICR
# Base.file_name: Test settling time
# Element.edge: K
# Mono.name: Si 111
# Mono.d_spacing: 3.13553
# Mono.settling_time: 5.5
# Beamline.name: XAFS/XRF Beamline (08-BM)
# Beamline.collimation: slits
# Beamline.focusing: no
# Beamline.harmonic_rejection: mirror coating VCM: Si, VFM: Si
# Facility.name: SESAME Synchrotron-light
# Facility.energy: 2.50 GeV
# Facility.current: -0.0726098
# Facility.xray_source: SESAME Bending Magnet
# Scan.start_time: 2021-10-18T14:22:23
# Scan.end_time: 2021-10-18T14:22:33
# Scan.edge_energy: 25000
# Scan.number: 1/1 -- intervals: 1, samples: 1
# Detector.IC1: 15cm  12
# Detector.IC2: 30cm  2
# Detector.IC3: 15cm  3
# Element.symbol: Cu
# Sample.stoichiometry: NONE
# Sample.prep: fsdf
# ///
# Experiment comments and remarks: NONE
# User comments and remarks: NONE
#----
#(1)energy   (2)IC1[V]   (3)IC2[V]   (4)IC3[V]   (5)TRANS   (6)TransRef   (7)KETEK-If   (8)KETEK-FLUOR   (9)KETEK-ROI_0[c/s]   (10)KETEK-ROI_1[c/s]   (11)KETEK-ROI_2[c/s]   (12)KETEK-e-time[sec]   (13)KETEK-DEADTIME[%]   (14)KETEK-INT_TIME[sec]   (15)KETEK-OCR   (16)KETEK-ICR
1.524994e+01  1.000000e-16  1.000000e-16  5.012902e-03  0.000000e+00  -3.154562e+01  0.000000e+00  0.000000e+00  0.000000e+00  0.000000e+00  0.000000e+00  4.745491e-01  4.555789e-01  4.767210e-01  0.000000e+00  0.000000e+00
1.525091e+01  1.000000e-16  1.000000e-16  5.025061e-03  0.000000e+00  -3.154804e+01  0.000000e+00  0.000000e+00  0.000000e+00  0.000000e+00  0.000000e+00  5.028816e-01  1.130756e-01  5.034509e-01  0.000000e+00  0.000000e+00
1.525204e+01  1.000000e-16  1.000000e-16  5.108978e-03  0.000000e+00  -3.156461e+01  0.000000e+00  0.000000e+00  0.000000e+00  0.000000e+00  0.000000e+00  5.031955e-01  9.809216e-02  5.036896e-01  0.000000e+00  0.000000e+00
1.525300e+01  1.000000e-16  1.000000e-16  5.117322e-03  0.000000e+00  -3.156624e+01  0.000000e+00  0.000000e+00  0.000000e+00  0.000000e+00  0.000000e+00  5.031981e-01  9.599715e-02  5.036816e-01  0.000000e+00  0.000000e+00
1.525402e+01  1.000000e-16  1.000000e-16  4.935184e-03  0.000000e+00  -3.153000e+01  0.000000e+00  0.000000e+00  0.000000e+00  0.000000e+00  0.000000e+00  5.028602e-01  9.860209e-02  5.033565e-01  0.000000e+00  0.000000e+00
1.525506e+01  1.000000e-16  1.000000e-16  5.169770e-03  0.000000e+00  -3.157643e+01  0.000000e+00  0.000000e+00  0.000000e+00  0.000000e+00  0.000000e+00  5.032589e-01  9.649327e-02  5.037450e-01  0.000000e+00  0.000000e+00
1.525600e+01  1.000000e-16  1.000000e-16  5.086568e-03  0.000000e+00  -3.156021e+01  0.000000e+00  0.000000e+00  0.000000e+00  0.000000e+00  0.000000e+00  5.028768e-01  9.840830e-02  5.033722e-01  0.000000e+00  0.000000e+00
1.525699e+01  1.000000e-16  1.000000e-16  5.077270e-03  0.000000e+00  -3.155838e+01  0.000000e+00  0.000000e+00  0.000000e+00  0.000000e+00  0.000000e+00  5.032282e-01  9.681649e-02  5.037158e-01  0.000000e+00  0.000000e+00
1.525806e+01  1.000000e-16  1.000000e-16  5.106832e-03  0.000000e+00  -3.156419e+01  0.000000e+00  0.000000e+00  0.000000e+00  0.000000e+00  0.000000e+00  5.032326e-01  9.161116e-02  5.036941e-01  0.000000e+00  0.000000e+00
1.525903e+01  1.000000e-16  1.000000e-16  5.014810e-03  0.000000e+00  -3.154600e+01  0.000000e+00  0.000000e+00  0.000000e+00  0.000000e+00  0.000000e+00  5.033050e-01  1.138687e-01  5.038787e-01  0.000000e+00  0.000000e+00

File: Test settling time _Scan(1)2021_10_18T21_16_21.xdi
# XDI/1.0 SED_XAFS/0.9
# Column.1: energy eV
# Column.2: Ionization Chamber (IC) number 1
# Column.3: Ionization Chamber (IC) number 2
# Column.4: Ionization Chamber (IC) number 3
# Column.5: Transmission (log(IC1 current/ IC2 current))
# Column.6: Transmission Reference (log(IC2 current/IC3 current))
# Column.7: KETEK-If
# Column.8: KETEK-FLUOR
# Column.9: KETEK-ROI_0[c/s]
# Column.10: KETEK-ROI_1[c/s]
# Column.11: KETEK-ROI_2[c/s]
# Column.12: KETEK-e-time[sec]
# Column.13: KETEK-DEADTIME[%]
# Column.14: KETEK-INT_TIME[sec]
# Column.15: KETEK-OCR
# Column.16: KETEK-ICR
# Base.file_name: Test settling time
# Element.edge: K
# Mono.name: Si 111
# Mono.d_spacing: 3.13553
# Mono.settling_time: 1.2
# Beamline.name: XAFS/XRF Beamline (08-BM)
# Beamline.collimation: slits
# Beamline.focusing: no
# Beamline.harmonic_rejection: mirror coating VCM: Si, VFM: Si
# Facility.name: SESAME Synchrotron-light
# Facility.energy: 2.50 GeV
# Facility.current: 202.1839
# Facility.xray_source: SESAME Bending Magnet
# Scan.start_time: 2021-10-18T21:16:21
# Scan.end_time: 2021-10-18T21:16:30
# Scan.edge_energy: 25000
# Scan.number: 1/1 -- intervals: 1, samples: 1
# Detector.IC1: 15cm  12
# Detector.IC2: 30cm  2
# Detector.IC3: 15cm  3
# Element.symbol: Cu
# Sample.stoichiometry: NONE
# Sample.prep: fsdf
# ///
# Experiment comments and remarks: NONE
# User comments and remarks: NONE
#----
#(1)energy   (2)IC1[V]   (3)IC2[V]   (4)IC3[V]   (5)TRANS   (6)TransRef   (7)KETEK-If   (8)KETEK-FLUOR   (9)KETEK-ROI_0[c/s]   (10)KETEK-ROI_1[c/s]   (11)KETEK-ROI_2[c/s]   (12)KETEK-e-time[sec]   (13)KETEK-DEADTIME[%]   (14)KETEK-INT_TIME[sec]   (15)KETEK-OCR   (16)KETEK-ICR
1.524994e+01  1.000000e-16  1.000000e-16  5.030544e-03  0.000000e+00  -3.154913e+01  0.000000e+00  0.000000e+00  0.000000e+00  0.000000e+00  0.000000e+00  4.267264e-01  4.378875e-01  4.286032e-01  0.000000e+00  0.000000e+00
1.525093e+01  1.000000e-16  1.000000e-16  5.131149e-03  0.000000e+00  -3.156894e+01  0.000000e+00  0.000000e+00  0.000000e+00  0.000000e+00  0.000000e+00  5.030173e-01  1.114583e-01  5.035786e-01  0.000000e+00  0.000000e+00
1.525201e+01  1.000000e-16  1.000000e-16  4.990016e-03  0.000000e+00  -3.154105e+01  0.000000e+00  0.000000e+00  0.000000e+00  0.000000e+00  0.000000e+00  5.029206e-01  1.119241e-01  5.034842e-01  0.000000e+00  0.000000e+00
1.525303e+01  1.000000e-16  1.000000e-16  5.057006e-03  0.000000e+00  -3.155438e+01  0.000000e+00  0.000000e+00  0.000000e+00  0.000000e+00  0.000000e+00  5.032208e-01  9.764297e-02  5.037126e-01  0.000000e+00  0.000000e+00
1.525399e+01  1.000000e-16  1.000000e-16  5.066304e-03  0.000000e+00  -3.155622e+01  0.000000e+00  0.000000e+00  0.000000e+00  0.000000e+00  0.000000e+00  5.028813e-01  1.123138e-01  5.034467e-01  0.000000e+00  0.000000e+00
1.525504e+01  1.000000e-16  1.000000e-16  4.975474e-03  0.000000e+00  -3.153813e+01  0.000000e+00  0.000000e+00  0.000000e+00  0.000000e+00  0.000000e+00  5.031504e-01  1.111750e-01  5.037104e-01  0.000000e+00  0.000000e+00
1.525603e+01  1.000000e-16  1.000000e-16  5.101826e-03  0.000000e+00  -3.156320e+01  0.000000e+00  0.000000e+00  0.000000e+00  0.000000e+00  0.000000e+00  5.029642e-01  1.115970e-01  5.035261e-01  0.000000e+00  0.000000e+00
1.525699e+01  1.000000e-16  1.000000e-16  5.008611e-03  0.000000e+00  -3.154476e+01  0.000000e+00  0.000000e+00  0.000000e+00  0.000000e+00  0.000000e+00  5.029395e-01  1.137609e-01  5.035123e-01  0.000000e+00  0.000000e+00
1.525803e+01  1.000000e-16  1.000000e-16  4.944959e-03  0.000000e+00  -3.153197e+01  0.000000e+00  0.000000e+00  0.000000e+00  0.000000e+00  0.000000e+00  5.029264e-01  1.114149e-01  5.034874e-01  0.000000e+00  0.000000e+00
1.525903e+01  1.000000e-16  1.000000e-16  4.967607e-03  0.000000e+00  -3.153654e+01  0.000000e+00  0.000000e+00  0.000000e+00  0.000000e+00  0.000000e+00  5.030358e-01  1.121524e-01  5.036006e-01  0.000000e+00  0.000000e+00

File: Test settling time _Scan(1)2021_10_18T23_37_03.xdi
# XDI/1.0 SED_XAFS/0.9
# Column.1: energy eV
# Column.2: Ionization Chamber (IC) number 1
# Column.3: Ionization Chamber (IC) number 2
# Column.4: Ionization Chamber (IC) number 3
# Column.5: Transmission (log(IC1 current/ IC2 current))
# Column.6: Transmission Reference (log(IC2 current/IC3 current))
# Column.7: KETEK-If
# Column.8: KETEK-FLUOR
# Column.9: KETEK-ROI_0[c/s]
# Column.10: KETEK-ROI_1[c/s]
# Column.11: KETEK-ROI_2[c/s]
# Column.12: KETEK-e-time[sec]
# Column.13: KETEK-DEADTIME[%]
# Column.14: KETEK-INT_TIME[sec]
# Column.15: KETEK-OCR
# Column.16: KETEK-ICR
# Base.file_name: Test settling time
# Element.edge: K
# Mono.name: Si 111
# Mono.d_spacing: 3.13553
# Mono.settling_time: 1.2
# Beamline.name: XAFS/XRF Beamline (08-BM)
# Beamline.collimation: slits
# Beamline.focusing: no
# Beamline.harmonic_rejection: mirror coating VCM: Si, VFM: Si
# Facility.name: SESAME Synchrotron-light
# Facility.energy: 2.50 GeV
# Facility.current: 286.092
# Facility.xray_source: SESAME Bending Magnet
# Scan.start_time: 2021-10-18T23:37:03
# Scan.end_time: 2021-10-18T23:37:13
# Scan.edge_energy: 25000
# Scan.number: 1/1 -- intervals: 1, samples: 1
# Detector.IC1: 15cm  12
# Detector.IC2: 30cm  2
# Detector.IC3: 15cm  3
# Element.symbol: Cu
# Sample.stoichiometry: NONE
# Sample.prep: fsdf
# ///
# Experiment comments and remarks: NONE
# User comments and remarks: NONE
#----
#(1)energy   (2)IC1[V]   (3)IC2[V]   (4)IC3[V]   (5)TRANS   (6)TransRef   (7)KETEK-If   (8)KETEK-FLUOR   (9)KETEK-ROI_0[c/s]   (10)KETEK-ROI_1[c/s]   (11)KETEK-ROI_2[c/s]   (12)KETEK-e-time[sec]   (13)KETEK-DEADTIME[%]   (14)KETEK-INT_TIME[sec]   (15)KETEK-OCR   (16)KETEK-ICR
1.524994e+01  1.000000e-16  1.000000e-16  5.144976e-03  0.000000e+00  -3.157163e+01  0.000000e+00  0.000000e+00  0.000000e+00  0.000000e+00  0.000000e+00  4.760829e-01  4.377300e-01  4.781760e-01  0.000000e+00  0.000000e+00
1.525093e+01  1.000000e-16  1.000000e-16  5.022677e-03  0.000000e+00  -3.154757e+01  0.000000e+00  0.000000e+00  0.000000e+00  0.000000e+00  0.000000e+00  5.031933e-01  1.108483e-01  5.037517e-01  0.000000e+00  0.000000e+00
1.525201e+01  1.000000e-16  1.000000e-16  5.041511e-03  0.000000e+00  -3.155131e+01  0.000000e+00  0.000000e+00  0.000000e+00  0.000000e+00  0.000000e+00  5.032794e-01  1.120982e-01  5.038442e-01  0.000000e+00  0.000000e+00
1.525300e+01  1.000000e-16  1.000000e-16  4.990731e-03  0.000000e+00  -3.154119e+01  0.000000e+00  0.000000e+00  0.000000e+00  0.000000e+00  0.000000e+00  5.032070e-01  1.119239e-01  5.037709e-01  0.000000e+00  0.000000e+00
1.525399e+01  1.000000e-16  1.000000e-16  5.148313e-03  0.000000e+00  -3.157228e+01  0.000000e+00  0.000000e+00  0.000000e+00  0.000000e+00  0.000000e+00  5.032006e-01  1.123060e-01  5.037664e-01  0.000000e+00  0.000000e+00
1.525501e+01  1.000000e-16  1.000000e-16  5.022916e-03  0.000000e+00  -3.154762e+01  0.000000e+00  0.000000e+00  0.000000e+00  0.000000e+00  0.000000e+00  5.029238e-01  1.119869e-01  5.034877e-01  0.000000e+00  0.000000e+00
1.525600e+01  1.000000e-16  1.000000e-16  5.181451e-03  0.000000e+00  -3.157869e+01  0.000000e+00  0.000000e+00  0.000000e+00  0.000000e+00  0.000000e+00  5.032451e-01  1.107100e-01  5.038029e-01  0.000000e+00  0.000000e+00
1.525699e+01  1.000000e-16  1.000000e-16  5.067973e-03  0.000000e+00  -3.155655e+01  0.000000e+00  0.000000e+00  0.000000e+00  0.000000e+00  0.000000e+00  5.028470e-01  1.120039e-01  5.034109e-01  0.000000e+00  0.000000e+00
1.525798e+01  1.000000e-16  1.000000e-16  4.987155e-03  0.000000e+00  -3.154047e+01  0.000000e+00  0.000000e+00  0.000000e+00  0.000000e+00  0.000000e+00  5.031475e-01  1.120006e-01  5.037117e-01  0.000000e+00  0.000000e+00
1.525900e+01  1.000000e-16  1.000000e-16  5.165002e-03  0.000000e+00  -3.157551e+01  0.000000e+00  0.000000e+00  0.000000e+00  0.000000e+00  0.000000e+00  5.028291e-01  1.110555e-01  5.033882e-01  0.000000e+00  0.000000e+00

File: Test settling time _Scan(1)2021_10_19T09_56_07.xdi
# XDI/1.0 SED_XAFS/0.9
# Column.1: energy eV
# Column.2: Ionization Chamber (IC) number 1
# Column.3: Ionization Chamber (IC) number 2
# Column.4: Ionization Chamber (IC) number 3
# Column.5: Transmission (log(IC1 current/ IC2 current))
# Column.6: Transmission Reference (log(IC2 current/IC3 current))
# Column.7: KETEK-If
# Column.8: KETEK-FLUOR
# Column.9: KETEK-ROI_0[c/s]
# Column.10: KETEK-ROI_1[c/s]
# Column.11: KETEK-ROI_2[c/s]
# Column.12: KETEK-e-time[sec]
# Column.13: KETEK-DEADTIME[%]
# Column.14: KETEK-INT_TIME[sec]
# Column.15: KETEK-OCR
# Column.16: KETEK-ICR
# Base.file_name: Test settling time
# Element.edge: K
# Mono.name: Si 111
# Mono.d_spacing: 3.13553
# Mono.settling_time: 1.2
# Beamline.name: XAFS/XRF Beamline (08-BM)
# Beamline.collimation: slits
# Beamline.focusing: no
# Beamline.harmonic_rejection: mirror coating VCM: Si, VFM: Si
# Facility.name: SESAME Synchrotron-light
# Facility.energy: 2.50 GeV
# Facility.current: 282.373
# Facility.xray_source: SESAME Bending Magnet
# Scan.start_time: 2021-10-19T09:56:07
# Scan.end_time: 2021-10-19T09:56:15
# Scan.edge_energy: 25000
# Scan.number: 1/1 -- intervals: 1, samples: 1
# Detector.IC1: 15cm  12
# Detector.IC2: 30cm  2
# Detector.IC3: 15cm  3
# Element.symbol: Cu
# Sample.stoichiometry: NONE
# Sample.prep: fsdf
# ///
# Experiment comments and remarks: NONE
# User comments and remarks: NONE
#----
#(1)energy   (2)IC1[V]   (3)IC2[V]   (4)IC3[V]   (5)TRANS   (6)TransRef   (7)KETEK-If   (8)KETEK-FLUOR   (9)KETEK-ROI_0[c/s]   (10)KETEK-ROI_1[c/s]   (11)KETEK-ROI_2[c/s]   (12)KETEK-e-time[sec]   (13)KETEK-DEADTIME[%]   (14)KETEK-INT_TIME[sec]   (15)KETEK-OCR   (16)KETEK-ICR
1.524997e+01  1.000000e-16  1.000000e-16  5.030067e-03  0.000000e+00  -3.154904e+01  0.000000e+00  0.000000e+00  0.000000e+00  0.000000e+00  0.000000e+00  4.262893e-01  4.334233e-01  4.281450e-01  0.000000e+00  0.000000e+00
1.525093e+01  1.000000e-16  1.000000e-16  5.024346e-03  0.000000e+00  -3.154790e+01  0.000000e+00  0.000000e+00  0.000000e+00  0.000000e+00  0.000000e+00  5.031171e-01  1.125785e-01  5.036842e-01  0.000000e+00  0.000000e+00
1.525198e+01  1.000000e-16  1.000000e-16  5.250110e-03  0.000000e+00  -3.159186e+01  0.000000e+00  0.000000e+00  0.000000e+00  0.000000e+00  0.000000e+00  5.031366e-01  8.927964e-02  5.035862e-01  0.000000e+00  0.000000e+00
1.525300e+01  1.000000e-16  1.000000e-16  5.011949e-03  0.000000e+00  -3.154543e+01  0.000000e+00  0.000000e+00  0.000000e+00  0.000000e+00  0.000000e+00  5.030102e-01  9.215963e-02  5.034742e-01  0.000000e+00  0.000000e+00
1.525399e+01  1.000000e-16  1.000000e-16  5.031974e-03  0.000000e+00  -3.154942e+01  0.000000e+00  0.000000e+00  0.000000e+00  0.000000e+00  0.000000e+00  5.031795e-01  9.701626e-02  5.036682e-01  0.000000e+00  0.000000e+00
1.525501e+01  1.000000e-16  1.000000e-16  4.996453e-03  0.000000e+00  -3.154233e+01  0.000000e+00  0.000000e+00  0.000000e+00  0.000000e+00  0.000000e+00  5.032749e-01  1.109572e-01  5.038339e-01  0.000000e+00  0.000000e+00
1.525603e+01  1.000000e-16  1.000000e-16  5.196470e-03  0.000000e+00  -3.158159e+01  0.000000e+00  0.000000e+00  0.000000e+00  0.000000e+00  0.000000e+00  5.031488e-01  1.111119e-01  5.037085e-01  0.000000e+00  0.000000e+00
1.525699e+01  1.000000e-16  1.000000e-16  4.979049e-03  0.000000e+00  -3.153885e+01  0.000000e+00  0.000000e+00  0.000000e+00  0.000000e+00  0.000000e+00  5.028899e-01  1.105341e-01  5.034464e-01  0.000000e+00  0.000000e+00
1.525801e+01  1.000000e-16  1.000000e-16  5.050331e-03  0.000000e+00  -3.155306e+01  0.000000e+00  0.000000e+00  0.000000e+00  0.000000e+00  0.000000e+00  5.028307e-01  1.130235e-01  5.033997e-01  0.000000e+00  0.000000e+00
1.525903e+01  1.000000e-16  1.000000e-16  5.067496e-03  0.000000e+00  -3.155645e+01  0.000000e+00  0.000000e+00  0.000000e+00  0.000000e+00  0.000000e+00  5.028806e-01  1.110441e-01  5.034397e-01  0.000000e+00  0.000000e+00