Folder: HESEBScanTool/tmp/SEM[1]/XAFS/20185101/data/csv (part 7)

File: Test_Scan(1)2021_10_12T21_03_15.xdi
# XDI/1.0 SED_XAFS/0.9
# Column.1: energy eV
# Column.2: Ionization Chamber (IC) number 1
# Column.3: Ionization Chamber (IC) number 2
# Column.4: Ionization Chamber (IC) number 3
# Column.5: Transmission (log(IC1 current/ IC2 current))
# Column.6: Transmission Reference (log(IC2 current/IC3 current))
# Column.7: KETEK-If
# Column.8: KETEK-FLUOR
# Column.9: KETEK-ROI_0[c/s]
# Column.10: KETEK-ROI_1[c/s]
# Column.11: KETEK-ROI_2[c/s]
# Column.12: KETEK-ROI_3[c/s]
# Column.13: KETEK-ROI_4[c/s]
# Column.14: KETEK-ROI_5[c/s]
# Column.15: KETEK-ROI_6[c/s]
# Column.16: KETEK-ROI_7[c/s]
# Column.17: KETEK-e-time[sec]
# Column.18: KETEK-DEADTIME[%]
# Column.19: KETEK-INT_TIME[sec]
# Column.20: KETEK-OCR
# Column.21: KETEK-ICR
# Base.file_name: Test
# Scan.edge_energy: 8980.0
# Mono.name: Si 111
# Mono.d_spacing: 3.13553
# Beamline.name: 13ID
# Beamline.collimation: slits
# Beamline.focusing: no
# Beamline.harmonic_rejection: rhodium-coated mirror
# Facility.name: SESAME Synchrotron
# Facility.energy: 2.50 GeV
# Facility.xray_source: SESAME Bending Magnet
# Scan.start_time: 2021-10-12T21:03:24
# Detector.IC1: 15cm  N2
# Detector.IC2: 30cm  N2
# Detector.IC3: 15cm  N2
# Sample.name: Cu
# Sample.prep: Cu metal foil
# ///
# Cu foil Room Temperature
# measured at beamline 08-BM XAFS/XRF Beamline
#----
#(1)ENERGY-RBK   (2)IC1[V]   (3)IC2[V]   (4)IC3[V]   (5)TRANS   (6)TransRef   (7)KETEK-If   (8)KETEK-FLUOR   (9)KETEK-ROI_0[c/s]   (10)KETEK-ROI_1[c/s]   (11)KETEK-ROI_2[c/s]   (12)KETEK-ROI_3[c/s]   (13)KETEK-ROI_4[c/s]   (14)KETEK-ROI_5[c/s]   (15)KETEK-ROI_6[c/s]   (16)KETEK-ROI_7[c/s]   (17)KETEK-e-time[sec]   (18)KETEK-DEADTIME[%]   (19)KETEK-INT_TIME[sec]   (20)KETEK-OCR   (21)KETEK-ICR
1.524992e+01 1.000000e-16 1.000000e-16 5.160711e-03 0.000000e+00 -3.157468e+01 0.000000e+00 0.000000e+00 0.000000e+00 0.000000e+00 0.000000e+00 0.000000e+00 0.000000e+00 0.000000e+00 0.000000e+00 0.000000e+00 9.965338e-01 4.421040e-01 1.000959e+00 0.000000e+00 0.000000e+00
1.525096e+01 1.000000e-16 1.000000e-16 5.138063e-03 0.000000e+00 -3.157028e+01 0.000000e+00 0.000000e+00 0.000000e+00 0.000000e+00 0.000000e+00 0.000000e+00 0.000000e+00 0.000000e+00 0.000000e+00 0.000000e+00 1.006491e+00 1.017314e-01 1.007516e+00 0.000000e+00 0.000000e+00
1.525198e+01 1.000000e-16 1.000000e-16 5.153320e-03 0.000000e+00 -3.157325e+01 0.000000e+00 0.000000e+00 0.000000e+00 0.000000e+00 0.000000e+00 0.000000e+00 0.000000e+00 0.000000e+00 0.000000e+00 0.000000e+00 1.006178e+00 1.170271e-01 1.007357e+00 0.000000e+00 0.000000e+00
1.525300e+01 1.000000e-16 1.000000e-16 5.003605e-03 0.000000e+00 -3.154376e+01 0.000000e+00 0.000000e+00 0.000000e+00 0.000000e+00 0.000000e+00 0.000000e+00 0.000000e+00 0.000000e+00 0.000000e+00 0.000000e+00 1.006334e+00 9.847857e-02 1.007326e+00 0.000000e+00 0.000000e+00
1.525399e+01 1.000000e-16 1.000000e-16 5.185027e-03 0.000000e+00 -3.157938e+01 0.000000e+00 0.000000e+00 0.000000e+00 0.000000e+00 0.000000e+00 0.000000e+00 0.000000e+00 0.000000e+00 0.000000e+00 0.000000e+00 1.006268e+00 1.180953e-01 1.007457e+00 0.000000e+00 0.000000e+00
1.525501e+01 1.000000e-16 1.000000e-16 4.993592e-03 0.000000e+00 -3.154176e+01 0.000000e+00 0.000000e+00 0.000000e+00 0.000000e+00 0.000000e+00 0.000000e+00 0.000000e+00 0.000000e+00 0.000000e+00 0.000000e+00 1.006659e+00 1.170664e-01 1.007838e+00 0.000000e+00 0.000000e+00
1.525603e+01 1.000000e-16 1.000000e-16 5.102064e-03 0.000000e+00 -3.156325e+01 0.000000e+00 0.000000e+00 0.000000e+00 0.000000e+00 0.000000e+00 0.000000e+00 0.000000e+00 0.000000e+00 0.000000e+00 0.000000e+00 1.006510e+00 1.170202e-01 1.007690e+00 0.000000e+00 0.000000e+00
1.525702e+01 1.000000e-16 1.000000e-16 5.306850e-03 0.000000e+00 -3.160260e+01 0.000000e+00 0.000000e+00 0.000000e+00 0.000000e+00 0.000000e+00 0.000000e+00 0.000000e+00 0.000000e+00 0.000000e+00 0.000000e+00 1.006491e+00 1.166101e-01 1.007666e+00 0.000000e+00 0.000000e+00
1.525801e+01 1.000000e-16 1.000000e-16 5.003128e-03 0.000000e+00 -3.154367e+01 0.000000e+00 0.000000e+00 0.000000e+00 0.000000e+00 0.000000e+00 0.000000e+00 0.000000e+00 0.000000e+00 0.000000e+00 0.000000e+00 1.006260e+00 1.184452e-01 1.007453e+00 0.000000e+00 0.000000e+00
1.525903e+01 1.000000e-16 1.000000e-16 5.170247e-03 0.000000e+00 -3.157653e+01 0.000000e+00 0.000000e+00 0.000000e+00 0.000000e+00 0.000000e+00 0.000000e+00 0.000000e+00 0.000000e+00 0.000000e+00 0.000000e+00 1.006116e+00 1.299789e-01 1.007425e+00 0.000000e+00 0.000000e+00
1.525999e+01 1.000000e-16 1.000000e-16 5.161188e-03 0.000000e+00 -3.157477e+01 0.000000e+00 0.000000e+00 0.000000e+00 0.000000e+00 0.000000e+00 0.000000e+00 0.000000e+00 0.000000e+00 0.000000e+00 0.000000e+00 1.006192e+00 1.171524e-01 1.007372e+00 0.000000e+00 0.000000e+00
1.526101e+01 1.000000e-16 1.000000e-16 5.103018e-03 0.000000e+00 -3.156344e+01 0.000000e+00 0.000000e+00 0.000000e+00 0.000000e+00 0.000000e+00 0.000000e+00 0.000000e+00 0.000000e+00 0.000000e+00 0.000000e+00 1.006517e+00 1.186370e-01 1.007712e+00 0.000000e+00 0.000000e+00
1.526203e+01 1.000000e-16 1.000000e-16 5.118514e-03 0.000000e+00 -3.156647e+01 0.000000e+00 0.000000e+00 0.000000e+00 0.000000e+00 0.000000e+00 0.000000e+00 0.000000e+00 0.000000e+00 0.000000e+00 0.000000e+00 1.006419e+00 1.184583e-01 1.007612e+00 0.000000e+00 0.000000e+00
1.526299e+01 1.000000e-16 1.000000e-16 5.205291e-03 0.000000e+00 -3.158328e+01 0.000000e+00 0.000000e+00 0.000000e+00 0.000000e+00 0.000000e+00 0.000000e+00 0.000000e+00 0.000000e+00 0.000000e+00 0.000000e+00 1.006644e+00 1.041587e-01 1.007693e+00 0.000000e+00 0.000000e+00
1.526401e+01 1.000000e-16 1.000000e-16 5.080846e-03 0.000000e+00 -3.155908e+01 0.000000e+00 0.000000e+00 0.000000e+00 0.000000e+00 0.000000e+00 0.000000e+00 0.000000e+00 0.000000e+00 0.000000e+00 0.000000e+00 1.006538e+00 1.174610e-01 1.007722e+00 0.000000e+00 0.000000e+00
1.526500e+01 1.000000e-16 1.000000e-16 5.221503e-03 0.000000e+00 -3.158639e+01 0.000000e+00 0.000000e+00 0.000000e+00 0.000000e+00 0.000000e+00 0.000000e+00 0.000000e+00 0.000000e+00 0.000000e+00 0.000000e+00 1.006251e+00 9.797882e-02 1.007238e+00 0.000000e+00 0.000000e+00
1.526602e+01 1.000000e-16 1.000000e-16 5.158327e-03 0.000000e+00 -3.157422e+01 0.000000e+00 0.000000e+00 0.000000e+00 0.000000e+00 0.000000e+00 0.000000e+00 0.000000e+00 0.000000e+00 0.000000e+00 0.000000e+00 1.006314e+00 1.022888e-01 1.007344e+00 0.000000e+00 0.000000e+00
1.526701e+01 1.000000e-16 1.000000e-16 5.103018e-03 0.000000e+00 -3.156344e+01 0.000000e+00 0.000000e+00 0.000000e+00 0.000000e+00 0.000000e+00 0.000000e+00 0.000000e+00 0.000000e+00 0.000000e+00 0.000000e+00 1.006582e+00 1.177413e-01 1.007769e+00 0.000000e+00 0.000000e+00

File: Test_Scan(1)2021_10_13T14_40_47.xdi
# XDI/1.0 SED_XAFS/0.9
# Column.1: energy eV
# Column.2: Ionization Chamber (IC) number 1
# Column.3: Ionization Chamber (IC) number 2
# Column.4: Ionization Chamber (IC) number 3
# Column.5: Transmission (log(IC1 current/ IC2 current))
# Column.6: Transmission Reference (log(IC2 current/IC3 current))
# Column.7: KETEK-If
# Column.8: KETEK-FLUOR
# Column.9: KETEK-ROI_0[c/s]
# Column.10: KETEK-ROI_1[c/s]
# Column.11: KETEK-ROI_2[c/s]
# Column.12: KETEK-ROI_3[c/s]
# Column.13: KETEK-ROI_4[c/s]
# Column.14: KETEK-ROI_5[c/s]
# Column.15: KETEK-ROI_6[c/s]
# Column.16: KETEK-ROI_7[c/s]
# Column.17: KETEK-e-time[sec]
# Column.18: KETEK-DEADTIME[%]
# Column.19: KETEK-INT_TIME[sec]
# Column.20: KETEK-OCR
# Column.21: KETEK-ICR
# Base.file_name: Test
# Scan.edge_energy: 8980.0
# Mono.name: Si 111
# Mono.d_spacing: 3.13553
# Beamline.name: 13ID
# Beamline.collimation: slits
# Beamline.focusing: no
# Beamline.harmonic_rejection: rhodium-coated mirror
# Facility.name: SESAME Synchrotron
# Facility.energy: 2.50 GeV
# Facility.xray_source: SESAME Bending Magnet
# Scan.start_time: 2021-10-13T14:40:57
# Detector.IC1: 15cm  N2
# Detector.IC2: 30cm  N2
# Detector.IC3: 15cm  N2
# Sample.name: Cu
# Sample.prep: Cu metal foil
# ///
# Cu foil Room Temperature
# measured at beamline 08-BM XAFS/XRF Beamline
#----
#(1)ENERGY-RBK   (2)IC1[V]   (3)IC2[V]   (4)IC3[V]   (5)TRANS   (6)TransRef   (7)KETEK-If   (8)KETEK-FLUOR   (9)KETEK-ROI_0[c/s]   (10)KETEK-ROI_1[c/s]   (11)KETEK-ROI_2[c/s]   (12)KETEK-ROI_3[c/s]   (13)KETEK-ROI_4[c/s]   (14)KETEK-ROI_5[c/s]   (15)KETEK-ROI_6[c/s]   (16)KETEK-ROI_7[c/s]   (17)KETEK-e-time[sec]   (18)KETEK-DEADTIME[%]   (19)KETEK-INT_TIME[sec]   (20)KETEK-OCR   (21)KETEK-ICR
1.524994e+01 1.000000e-16 1.000000e-16 5.156658e-03 0.000000e+00 -3.157389e+01 0.000000e+00 0.000000e+00 0.000000e+00 0.000000e+00 0.000000e+00 0.000000e+00 0.000000e+00 0.000000e+00 0.000000e+00 0.000000e+00 9.225949e-01 4.431373e-01 9.267014e-01 0.000000e+00 0.000000e+00
1.525093e+01 1.000000e-16 1.000000e-16 5.075125e-03 0.000000e+00 -3.155796e+01 0.000000e+00 0.000000e+00 0.000000e+00 0.000000e+00 0.000000e+00 0.000000e+00 0.000000e+00 0.000000e+00 0.000000e+00 0.000000e+00 1.006569e+00 1.062284e-01 1.007640e+00 0.000000e+00 0.000000e+00
1.525204e+01 1.000000e-16 1.000000e-16 5.306611e-03 0.000000e+00 -3.160256e+01 0.000000e+00 0.000000e+00 0.000000e+00 0.000000e+00 0.000000e+00 0.000000e+00 0.000000e+00 0.000000e+00 0.000000e+00 0.000000e+00 1.006346e+00 1.009844e-01 1.007363e+00 0.000000e+00 0.000000e+00
1.525303e+01 1.000000e-16 1.000000e-16 5.130672e-03 0.000000e+00 -3.156884e+01 0.000000e+00 0.000000e+00 0.000000e+00 0.000000e+00 0.000000e+00 0.000000e+00 0.000000e+00 0.000000e+00 0.000000e+00 0.000000e+00 1.006521e+00 1.165115e-01 1.007695e+00 0.000000e+00 0.000000e+00
1.525402e+01 1.000000e-16 1.000000e-16 5.107070e-03 0.000000e+00 -3.156423e+01 0.000000e+00 0.000000e+00 0.000000e+00 0.000000e+00 0.000000e+00 0.000000e+00 0.000000e+00 0.000000e+00 0.000000e+00 0.000000e+00 1.006405e+00 1.178255e-01 1.007592e+00 0.000000e+00 0.000000e+00
1.525501e+01 1.000000e-16 1.000000e-16 4.960692e-03 0.000000e+00 -3.153515e+01 0.000000e+00 0.000000e+00 0.000000e+00 0.000000e+00 0.000000e+00 0.000000e+00 0.000000e+00 0.000000e+00 0.000000e+00 0.000000e+00 1.006310e+00 1.176144e-01 1.007495e+00 0.000000e+00 1.987458e+00
1.525603e+01 1.000000e-16 1.000000e-16 5.194801e-03 0.000000e+00 -3.158126e+01 0.000000e+00 0.000000e+00 0.000000e+00 0.000000e+00 0.000000e+00 0.000000e+00 0.000000e+00 0.000000e+00 0.000000e+00 0.000000e+00 1.006480e+00 9.979694e-02 1.007486e+00 0.000000e+00 0.000000e+00
1.525699e+01 1.000000e-16 1.000000e-16 5.131626e-03 0.000000e+00 -3.156903e+01 0.000000e+00 0.000000e+00 0.000000e+00 0.000000e+00 0.000000e+00 0.000000e+00 0.000000e+00 0.000000e+00 0.000000e+00 0.000000e+00 1.006458e+00 1.162332e-01 1.007629e+00 0.000000e+00 0.000000e+00
1.525801e+01 1.000000e-16 1.000000e-16 5.142353e-03 0.000000e+00 -3.157112e+01 0.000000e+00 0.000000e+00 0.000000e+00 0.000000e+00 0.000000e+00 0.000000e+00 0.000000e+00 0.000000e+00 0.000000e+00 0.000000e+00 1.006410e+00 1.028184e-01 1.007446e+00 0.000000e+00 0.000000e+00
1.525903e+01 1.000000e-16 1.000000e-16 5.113269e-03 0.000000e+00 -3.156545e+01 0.000000e+00 0.000000e+00 0.000000e+00 0.000000e+00 0.000000e+00 0.000000e+00 0.000000e+00 0.000000e+00 0.000000e+00 0.000000e+00 1.006648e+00 1.045389e-01 1.007701e+00 0.000000e+00 0.000000e+00
1.526002e+01 1.000000e-16 1.000000e-16 5.104448e-03 0.000000e+00 -3.156372e+01 0.000000e+00 0.000000e+00 0.000000e+00 0.000000e+00 0.000000e+00 0.000000e+00 0.000000e+00 0.000000e+00 0.000000e+00 0.000000e+00 1.006323e+00 1.163122e-01 1.007495e+00 0.000000e+00 0.000000e+00
1.526101e+01 1.000000e-16 1.000000e-16 5.149506e-03 0.000000e+00 -3.157251e+01 0.000000e+00 0.000000e+00 0.000000e+00 0.000000e+00 0.000000e+00 0.000000e+00 0.000000e+00 0.000000e+00 0.000000e+00 0.000000e+00 1.006448e+00 1.015771e-01 1.007471e+00 0.000000e+00 0.000000e+00
1.526203e+01 1.000000e-16 1.000000e-16 5.049139e-03 0.000000e+00 -3.155282e+01 0.000000e+00 0.000000e+00 0.000000e+00 0.000000e+00 0.000000e+00 0.000000e+00 0.000000e+00 0.000000e+00 0.000000e+00 0.000000e+00 1.006641e+00 1.166562e-01 1.007816e+00 0.000000e+00 0.000000e+00
1.526299e+01 1.000000e-16 1.000000e-16 5.072026e-03 0.000000e+00 -3.155735e+01 0.000000e+00 0.000000e+00 0.000000e+00 0.000000e+00 0.000000e+00 0.000000e+00 0.000000e+00 0.000000e+00 0.000000e+00 0.000000e+00 1.006610e+00 9.692861e-02 1.007587e+00 0.000000e+00 0.000000e+00
1.526401e+01 1.000000e-16 1.000000e-16 5.161426e-03 0.000000e+00 -3.157482e+01 0.000000e+00 0.000000e+00 0.000000e+00 0.000000e+00 0.000000e+00 0.000000e+00 0.000000e+00 0.000000e+00 0.000000e+00 0.000000e+00 1.006367e+00 1.177030e-01 1.007553e+00 0.000000e+00 0.000000e+00
1.526503e+01 1.000000e-16 1.000000e-16 5.176445e-03 0.000000e+00 -3.157772e+01 0.000000e+00 0.000000e+00 0.000000e+00 0.000000e+00 0.000000e+00 0.000000e+00 0.000000e+00 0.000000e+00 0.000000e+00 0.000000e+00 1.006364e+00 1.187820e-01 1.007560e+00 0.000000e+00 0.000000e+00
1.526602e+01 1.000000e-16 1.000000e-16 5.151412e-03 0.000000e+00 -3.157288e+01 0.000000e+00 0.000000e+00 0.000000e+00 0.000000e+00 0.000000e+00 0.000000e+00 0.000000e+00 0.000000e+00 0.000000e+00 0.000000e+00 1.006152e+00 1.185848e-01 1.007346e+00 0.000000e+00 0.000000e+00
1.526707e+01 1.000000e-16 1.000000e-16 5.247726e-03 0.000000e+00 -3.159140e+01 0.000000e+00 0.000000e+00 0.000000e+00 0.000000e+00 0.000000e+00 0.000000e+00 0.000000e+00 0.000000e+00 0.000000e+00 0.000000e+00 1.006157e+00 1.045581e-01 1.007210e+00 0.000000e+00 0.000000e+00
1.526800e+01 1.000000e-16 1.000000e-16 5.113030e-03 0.000000e+00 -3.156540e+01 0.000000e+00 0.000000e+00 0.000000e+00 0.000000e+00 0.000000e+00 0.000000e+00 0.000000e+00 0.000000e+00 0.000000e+00 0.000000e+00 1.006263e+00 9.556548e-02 1.007226e+00 0.000000e+00 0.000000e+00
1.526905e+01 1.000000e-16 1.000000e-16 5.135678e-03 0.000000e+00 -3.156982e+01 0.000000e+00 0.000000e+00 0.000000e+00 0.000000e+00 0.000000e+00 0.000000e+00 0.000000e+00 0.000000e+00 0.000000e+00 0.000000e+00 1.006285e+00 1.174904e-01 1.007469e+00 0.000000e+00 0.000000e+00

File: Test_Scan(1)2021_10_13T14_48_18.xdi
# XDI/1.0 SED_XAFS/0.9
# Column.1: energy eV
# Column.2: Ionization Chamber (IC) number 1
# Column.3: Ionization Chamber (IC) number 2
# Column.4: Ionization Chamber (IC) number 3
# Column.5: Transmission (log(IC1 current/ IC2 current))
# Column.6: Transmission Reference (log(IC2 current/IC3 current))
# Column.7: KETEK-If
# Column.8: KETEK-FLUOR
# Column.9: KETEK-ROI_0[c/s]
# Column.10: KETEK-ROI_1[c/s]
# Column.11: KETEK-ROI_2[c/s]
# Column.12: KETEK-ROI_3[c/s]
# Column.13: KETEK-ROI_4[c/s]
# Column.14: KETEK-ROI_5[c/s]
# Column.15: KETEK-ROI_6[c/s]
# Column.16: KETEK-ROI_7[c/s]
# Column.17: KETEK-e-time[sec]
# Column.18: KETEK-DEADTIME[%]
# Column.19: KETEK-INT_TIME[sec]
# Column.20: KETEK-OCR
# Column.21: KETEK-ICR
# Base.file_name: Test
# Scan.edge_energy: 8980.0
# Mono.name: Si 111
# Mono.d_spacing: 3.13553
# Beamline.name: 13ID
# Beamline.collimation: slits
# Beamline.focusing: no
# Beamline.harmonic_rejection: rhodium-coated mirror
# Facility.name: SESAME Synchrotron
# Facility.energy: 2.50 GeV
# Facility.xray_source: SESAME Bending Magnet
# Scan.start_time: 2021-10-13T14:51:23
# Detector.IC1: 15cm  N2
# Detector.IC2: 30cm  N2
# Detector.IC3: 15cm  N2
# Sample.name: Cu
# Sample.prep: Cu metal foil
# ///
# Cu foil Room Temperature
# measured at beamline 08-BM XAFS/XRF Beamline
#----
#(1)ENERGY-RBK   (2)IC1[V]   (3)IC2[V]   (4)IC3[V]   (5)TRANS   (6)TransRef   (7)KETEK-If   (8)KETEK-FLUOR   (9)KETEK-ROI_0[c/s]   (10)KETEK-ROI_1[c/s]   (11)KETEK-ROI_2[c/s]   (12)KETEK-ROI_3[c/s]   (13)KETEK-ROI_4[c/s]   (14)KETEK-ROI_5[c/s]   (15)KETEK-ROI_6[c/s]   (16)KETEK-ROI_7[c/s]   (17)KETEK-e-time[sec]   (18)KETEK-DEADTIME[%]   (19)KETEK-INT_TIME[sec]   (20)KETEK-OCR   (21)KETEK-ICR
1.524992e+01 1.000000e-16 1.000000e-16 5.173346e-03 0.000000e+00 -3.157713e+01 0.000000e+00 0.000000e+00 0.000000e+00 0.000000e+00 0.000000e+00 0.000000e+00 0.000000e+00 0.000000e+00 0.000000e+00 0.000000e+00 4.404589e-01 4.579947e-01 4.424854e-01 0.000000e+00 0.000000e+00
1.525096e+01 1.000000e-16 1.000000e-16 5.098727e-03 0.000000e+00 -3.156260e+01 0.000000e+00 0.000000e+00 0.000000e+00 0.000000e+00 0.000000e+00 0.000000e+00 0.000000e+00 0.000000e+00 0.000000e+00 0.000000e+00 5.029069e-01 1.010061e-01 5.034154e-01 0.000000e+00 0.000000e+00
1.525204e+01 1.000000e-16 1.000000e-16 5.055576e-03 0.000000e+00 -3.155410e+01 0.000000e+00 0.000000e+00 0.000000e+00 0.000000e+00 0.000000e+00 0.000000e+00 0.000000e+00 0.000000e+00 0.000000e+00 0.000000e+00 5.030566e-01 1.172884e-01 5.036474e-01 0.000000e+00 0.000000e+00
1.525300e+01 1.000000e-16 1.000000e-16 5.105640e-03 0.000000e+00 -3.156395e+01 0.000000e+00 0.000000e+00 0.000000e+00 0.000000e+00 0.000000e+00 0.000000e+00 0.000000e+00 0.000000e+00 0.000000e+00 0.000000e+00 5.029587e-01 1.164860e-01 5.035453e-01 0.000000e+00 0.000000e+00
1.525402e+01 1.000000e-16 1.000000e-16 5.224601e-03 0.000000e+00 -3.158698e+01 0.000000e+00 0.000000e+00 0.000000e+00 0.000000e+00 0.000000e+00 0.000000e+00 0.000000e+00 0.000000e+00 0.000000e+00 0.000000e+00 5.032115e-01 9.548683e-02 5.036925e-01 0.000000e+00 0.000000e+00
1.525504e+01 1.000000e-16 1.000000e-16 5.159996e-03 0.000000e+00 -3.157454e+01 0.000000e+00 0.000000e+00 0.000000e+00 0.000000e+00 0.000000e+00 0.000000e+00 0.000000e+00 0.000000e+00 0.000000e+00 0.000000e+00 5.029613e-01 1.181993e-01 5.035565e-01 0.000000e+00 0.000000e+00
1.525603e+01 1.000000e-16 1.000000e-16 5.188603e-03 0.000000e+00 -3.158007e+01 0.000000e+00 0.000000e+00 0.000000e+00 0.000000e+00 0.000000e+00 0.000000e+00 0.000000e+00 0.000000e+00 0.000000e+00 0.000000e+00 5.029875e-01 1.013073e-01 5.034976e-01 0.000000e+00 0.000000e+00
1.525699e+01 1.000000e-16 1.000000e-16 5.199808e-03 0.000000e+00 -3.158223e+01 0.000000e+00 0.000000e+00 0.000000e+00 0.000000e+00 0.000000e+00 0.000000e+00 0.000000e+00 0.000000e+00 0.000000e+00 0.000000e+00 5.030013e-01 1.185072e-01 5.035981e-01 0.000000e+00 0.000000e+00
1.525803e+01 1.000000e-16 1.000000e-16 5.099680e-03 0.000000e+00 -3.156278e+01 0.000000e+00 0.000000e+00 0.000000e+00 0.000000e+00 0.000000e+00 0.000000e+00 0.000000e+00 0.000000e+00 0.000000e+00 0.000000e+00 5.031027e-01 1.170239e-01 5.036922e-01 0.000000e+00 0.000000e+00
1.525900e+01 1.000000e-16 1.000000e-16 5.083469e-03 0.000000e+00 -3.155960e+01 0.000000e+00 0.000000e+00 0.000000e+00 0.000000e+00 0.000000e+00 0.000000e+00 0.000000e+00 0.000000e+00 0.000000e+00 0.000000e+00 5.032147e-01 1.154752e-01 5.037965e-01 0.000000e+00 0.000000e+00
1.525999e+01 1.000000e-16 1.000000e-16 5.132818e-03 0.000000e+00 -3.156926e+01 0.000000e+00 0.000000e+00 0.000000e+00 0.000000e+00 0.000000e+00 0.000000e+00 0.000000e+00 0.000000e+00 0.000000e+00 0.000000e+00 5.032032e-01 1.162392e-01 5.037888e-01 0.000000e+00 0.000000e+00
1.526101e+01 1.000000e-16 1.000000e-16 5.221264e-03 0.000000e+00 -3.158635e+01 0.000000e+00 0.000000e+00 0.000000e+00 0.000000e+00 0.000000e+00 0.000000e+00 0.000000e+00 0.000000e+00 0.000000e+00 0.000000e+00 5.030080e-01 1.185056e-01 5.036048e-01 0.000000e+00 0.000000e+00
1.526203e+01 1.000000e-16 1.000000e-16 5.097773e-03 0.000000e+00 -3.156241e+01 0.000000e+00 0.000000e+00 0.000000e+00 0.000000e+00 0.000000e+00 0.000000e+00 0.000000e+00 0.000000e+00 0.000000e+00 0.000000e+00 5.032746e-01 1.161593e-01 5.038598e-01 0.000000e+00 0.000000e+00
1.526299e+01 1.000000e-16 1.000000e-16 5.110408e-03 0.000000e+00 -3.156489e+01 0.000000e+00 0.000000e+00 0.000000e+00 0.000000e+00 0.000000e+00 0.000000e+00 0.000000e+00 0.000000e+00 0.000000e+00 0.000000e+00 5.030381e-01 9.932910e-02 5.035382e-01 0.000000e+00 0.000000e+00
1.526404e+01 1.000000e-16 1.000000e-16 5.122567e-03 0.000000e+00 -3.156726e+01 0.000000e+00 0.000000e+00 0.000000e+00 0.000000e+00 0.000000e+00 0.000000e+00 0.000000e+00 0.000000e+00 0.000000e+00 0.000000e+00 5.029523e-01 1.163606e-01 5.035382e-01 0.000000e+00 0.000000e+00
1.526503e+01 1.000000e-16 1.000000e-16 5.085615e-03 0.000000e+00 -3.156002e+01 0.000000e+00 0.000000e+00 0.000000e+00 0.000000e+00 0.000000e+00 0.000000e+00 0.000000e+00 0.000000e+00 0.000000e+00 0.000000e+00 5.028096e-01 1.175365e-01 5.034013e-01 0.000000e+00 0.000000e+00
1.526602e+01 1.000000e-16 1.000000e-16 5.150936e-03 0.000000e+00 -3.157278e+01 0.000000e+00 0.000000e+00 0.000000e+00 0.000000e+00 0.000000e+00 0.000000e+00 0.000000e+00 0.000000e+00 0.000000e+00 0.000000e+00 5.032326e-01 1.152173e-01 5.038131e-01 0.000000e+00 0.000000e+00
1.526701e+01 1.000000e-16 1.000000e-16 5.148313e-03 0.000000e+00 -3.157228e+01 0.000000e+00 0.000000e+00 0.000000e+00 0.000000e+00 0.000000e+00 0.000000e+00 0.000000e+00 0.000000e+00 0.000000e+00 0.000000e+00 5.028349e-01 1.162607e-01 5.034202e-01 0.000000e+00 0.000000e+00
1.526800e+01 1.000000e-16 1.000000e-16 5.062728e-03 0.000000e+00 -3.155551e+01 0.000000e+00 0.000000e+00 0.000000e+00 0.000000e+00 0.000000e+00 0.000000e+00 0.000000e+00 0.000000e+00 0.000000e+00 0.000000e+00 5.031898e-01 1.006955e-01 5.036970e-01 0.000000e+00 0.000000e+00
1.526905e+01 1.000000e-16 1.000000e-16 5.158803e-03 0.000000e+00 -3.157431e+01 0.000000e+00 0.000000e+00 0.000000e+00 0.000000e+00 0.000000e+00 0.000000e+00 0.000000e+00 0.000000e+00 0.000000e+00 0.000000e+00 5.030170e-01 1.153936e-01 5.035981e-01 0.000000e+00 0.000000e+00

File: Test_Scan(1)2021_10_13T22_13_04.xdi
# XDI/1.0 SED_XAFS/0.9
# Column.1: energy eV
# Column.2: Ionization Chamber (IC) number 1
# Column.3: Ionization Chamber (IC) number 2
# Column.4: Ionization Chamber (IC) number 3
# Column.5: Transmission (log(IC1 current/ IC2 current))
# Column.6: Transmission Reference (log(IC2 current/IC3 current))
# Base.file_name: Test
# Scan.edge_energy: 8980.0
# Mono.name: Si 111
# Mono.d_spacing: 3.13553
# Beamline.name: 13ID
# Beamline.collimation: slits
# Beamline.focusing: no
# Beamline.harmonic_rejection: rhodium-coated mirror
# Facility.name: SESAME Synchrotron
# Facility.energy: 2.50 GeV
# Facility.xray_source: SESAME Bending Magnet
# Scan.start_time: 2021-10-13T22:13:09
# Detector.IC1: 15cm  N2
# Detector.IC2: 30cm  N2
# Detector.IC3: 15cm  N2
# Sample.name: Cu
# Sample.prep: Cu metal foil
# ///
# Cu foil Room Temperature
# measured at beamline 08-BM XAFS/XRF Beamline
#----
#(1)ENERGY-RBK   (2)IC1[V]   (3)IC2[V]   (4)IC3[V]   (5)TRANS   (6)TransRef
1.524992e+01 1.000000e-16 1.000000e-16 5.199808e-03 0.000000e+00 -3.158223e+01
1.525093e+01 1.000000e-16 1.000000e-16 5.105401e-03 0.000000e+00 -3.156391e+01
1.525198e+01 1.000000e-16 1.000000e-16 5.095628e-03 0.000000e+00 -3.156199e+01
1.525300e+01 1.000000e-16 1.000000e-16 4.975712e-03 0.000000e+00 -3.153817e+01
1.525399e+01 1.000000e-16 1.000000e-16 5.204338e-03 0.000000e+00 -3.158310e+01
1.525501e+01 1.000000e-16 1.000000e-16 5.088237e-03 0.000000e+00 -3.156054e+01
1.525600e+01 1.000000e-16 1.000000e-16 5.041987e-03 0.000000e+00 -3.155141e+01
1.525696e+01 1.000000e-16 1.000000e-16 5.103971e-03 0.000000e+00 -3.156363e+01
1.525801e+01 1.000000e-16 1.000000e-16 5.088952e-03 0.000000e+00 -3.156068e+01
1.525900e+01 1.000000e-16 1.000000e-16 5.147837e-03 0.000000e+00 -3.157218e+01
1.525999e+01 1.000000e-16 1.000000e-16 5.242720e-03 0.000000e+00 -3.159045e+01
1.526104e+01 1.000000e-16 1.000000e-16 4.992162e-03 0.000000e+00 -3.154148e+01
1.526200e+01 1.000000e-16 1.000000e-16 5.055576e-03 0.000000e+00 -3.155410e+01
1.526299e+01 1.000000e-16 1.000000e-16 5.205530e-03 0.000000e+00 -3.158333e+01
1.526401e+01 1.000000e-16 1.000000e-16 5.045563e-03 0.000000e+00 -3.155212e+01
1.526500e+01 1.000000e-16 1.000000e-16 5.134010e-03 0.000000e+00 -3.156949e+01
1.526599e+01 1.000000e-16 1.000000e-16 5.104448e-03 0.000000e+00 -3.156372e+01
1.526701e+01 1.000000e-16 1.000000e-16 5.147598e-03 0.000000e+00 -3.157214e+01
1.526803e+01 1.000000e-16 1.000000e-16 5.147598e-03 0.000000e+00 -3.157214e+01
1.526900e+01 1.000000e-16 1.000000e-16 5.106117e-03 0.000000e+00 -3.156405e+01