Folder: HESEBScanTool/tmp/SEM[1]/XAFS/20185101/data/csv (part 8)

File: Test_Scan(1)2021_10_13T22_29_01.xdi
# XDI/1.0 SED_XAFS/0.9
# Column.1: energy eV
# Column.2: Ionization Chamber (IC) number 1
# Column.3: Ionization Chamber (IC) number 2
# Column.4: Ionization Chamber (IC) number 3
# Column.5: Transmission (log(IC1 current/ IC2 current))
# Column.6: Transmission Reference (log(IC2 current/IC3 current))
# Base.file_name: Test
# Scan.edge_energy: 8980.0
# Mono.name: Si 111
# Mono.d_spacing: 3.13553
# Beamline.name: 13ID
# Beamline.collimation: slits
# Beamline.focusing: no
# Beamline.harmonic_rejection: rhodium-coated mirror
# Facility.name: SESAME Synchrotron
# Facility.energy: 2.50 GeV
# Facility.xray_source: SESAME Bending Magnet
# Scan.start_time: 2021-10-13T22:29:06
# Detector.IC1: 15cm  N2
# Detector.IC2: 30cm  N2
# Detector.IC3: 15cm  N2
# Sample.name: Cu
# Sample.prep: Cu metal foil
# ///
# Cu foil Room Temperature
# measured at beamline 08-BM XAFS/XRF Beamline
#----
#(1)ENERGY-RBK   (2)IC1[V]   (3)IC2[V]   (4)IC3[V]   (5)TRANS   (6)TransRef
1.524989e+01   1.000000e-16   1.000000e-16   5.012664e-03   0.000000e+00   -3.154557e+01
1.525088e+01   1.000000e-16   1.000000e-16   5.044371e-03   0.000000e+00   -3.155188e+01
1.525198e+01   1.000000e-16   1.000000e-16   5.152605e-03   0.000000e+00   -3.157311e+01
1.525300e+01   1.000000e-16   1.000000e-16   5.160472e-03   0.000000e+00   -3.157463e+01
1.525399e+01   1.000000e-16   1.000000e-16   4.991447e-03   0.000000e+00   -3.154133e+01
1.525498e+01   1.000000e-16   1.000000e-16   5.057483e-03   0.000000e+00   -3.155448e+01
1.525600e+01   1.000000e-16   1.000000e-16   5.148076e-03   0.000000e+00   -3.157223e+01
1.525699e+01   1.000000e-16   1.000000e-16   5.048662e-03   0.000000e+00   -3.155273e+01
1.525801e+01   1.000000e-16   1.000000e-16   5.184550e-03   0.000000e+00   -3.157929e+01
1.525900e+01   1.000000e-16   1.000000e-16   5.239383e-03   0.000000e+00   -3.158981e+01
1.525999e+01   1.000000e-16   1.000000e-16   5.112792e-03   0.000000e+00   -3.156535e+01
1.526101e+01   1.000000e-16   1.000000e-16   5.130672e-03   0.000000e+00   -3.156884e+01
1.526200e+01   1.000000e-16   1.000000e-16   5.105163e-03   0.000000e+00   -3.156386e+01
1.526299e+01   1.000000e-16   1.000000e-16   5.325922e-03   0.000000e+00   -3.160619e+01
1.526401e+01   1.000000e-16   1.000000e-16   5.017670e-03   0.000000e+00   -3.154657e+01
1.526500e+01   1.000000e-16   1.000000e-16   5.127335e-03   0.000000e+00   -3.156819e+01
1.526599e+01   1.000000e-16   1.000000e-16   5.146883e-03   0.000000e+00   -3.157200e+01
1.526701e+01   1.000000e-16   1.000000e-16   5.150221e-03   0.000000e+00   -3.157265e+01
1.526798e+01   1.000000e-16   1.000000e-16   5.099918e-03   0.000000e+00   -3.156283e+01
1.526902e+01   1.000000e-16   1.000000e-16   5.146168e-03   0.000000e+00   -3.157186e+01

File: Test_Scan(1)2021_10_13T23_17_24.xdi
# XDI/1.0 SED_XAFS/0.9
# Column.1: energy eV
# Column.2: Ionization Chamber (IC) number 1
# Column.3: Ionization Chamber (IC) number 2
# Column.4: Ionization Chamber (IC) number 3
# Column.5: Transmission (log(IC1 current/ IC2 current))
# Column.6: Transmission Reference (log(IC2 current/IC3 current))
# Base.file_name: Test
# Scan.edge_energy: 8980.0
# Mono.name: Si 111
# Mono.d_spacing: 3.13553
# Beamline.name: 13ID
# Beamline.collimation: slits
# Beamline.focusing: no
# Beamline.harmonic_rejection: rhodium-coated mirror
# Facility.name: SESAME Synchrotron
# Facility.energy: 2.50 GeV
# Facility.xray_source: SESAME Bending Magnet
# Scan.start_time: 2021-10-13T23:18:03
# Detector.IC1: 15cm  N2
# Detector.IC2: 30cm  N2
# Detector.IC3: 15cm  N2
# Sample.name: Cu
# Sample.prep: Cu metal foil
# ///
# Cu foil Room Temperature
# measured at beamline 08-BM XAFS/XRF Beamline
#----
#(1)ENERGY-RBK   (2)IC1[V]   (3)IC2[V]   (4)IC3[V]   (5)TRANS   (6)TransRef
1.525006e+01   1.000000e-16   1.000000e-16   5.097773e-03   0.000000e+00   -3.156241e+01
1.525093e+01   1.000000e-16   1.000000e-16   4.944243e-03   0.000000e+00   -3.153183e+01
1.525201e+01   1.000000e-16   1.000000e-16   5.165717e-03   0.000000e+00   -3.157565e+01
1.525300e+01   1.000000e-16   1.000000e-16   5.050808e-03   0.000000e+00   -3.155315e+01
1.525399e+01   1.000000e-16   1.000000e-16   4.984294e-03   0.000000e+00   -3.153990e+01
1.525501e+01   1.000000e-16   1.000000e-16   5.195517e-03   0.000000e+00   -3.158140e+01
1.525600e+01   1.000000e-16   1.000000e-16   5.102541e-03   0.000000e+00   -3.156334e+01
1.525699e+01   1.000000e-16   1.000000e-16   4.969990e-03   0.000000e+00   -3.153702e+01
1.525803e+01   1.000000e-16   1.000000e-16   5.041749e-03   0.000000e+00   -3.155136e+01
1.525900e+01   1.000000e-16   1.000000e-16   5.049377e-03   0.000000e+00   -3.155287e+01
1.525999e+01   1.000000e-16   1.000000e-16   5.024584e-03   0.000000e+00   -3.154795e+01
1.526098e+01   1.000000e-16   1.000000e-16   5.057483e-03   0.000000e+00   -3.155448e+01
1.526200e+01   1.000000e-16   1.000000e-16   5.017432e-03   0.000000e+00   -3.154652e+01
1.526299e+01   1.000000e-16   1.000000e-16   4.958309e-03   0.000000e+00   -3.153467e+01
1.526398e+01   1.000000e-16   1.000000e-16   4.975950e-03   0.000000e+00   -3.153822e+01
1.526500e+01   1.000000e-16   1.000000e-16   5.084184e-03   0.000000e+00   -3.155974e+01
1.526599e+01   1.000000e-16   1.000000e-16   5.067973e-03   0.000000e+00   -3.155655e+01
1.526698e+01   1.000000e-16   1.000000e-16   5.067973e-03   0.000000e+00   -3.155655e+01
1.526800e+01   1.000000e-16   1.000000e-16   5.113031e-03   0.000000e+00   -3.156540e+01
1.526900e+01   1.000000e-16   1.000000e-16   5.188126e-03   0.000000e+00   -3.157998e+01

File: Test_Scan(1)2021_10_13T23_21_23.xdi
# XDI/1.0 SED_XAFS/0.9
# Column.1: energy eV
# Column.2: Ionization Chamber (IC) number 1
# Column.3: Ionization Chamber (IC) number 2
# Column.4: Ionization Chamber (IC) number 3
# Column.5: Transmission (log(IC1 current/ IC2 current))
# Column.6: Transmission Reference (log(IC2 current/IC3 current))
# Base.file_name: Test
# Scan.edge_energy: 8980.0
# Mono.name: Si 111
# Mono.d_spacing: 3.13553
# Beamline.name: 13ID
# Beamline.collimation: slits
# Beamline.focusing: no
# Beamline.harmonic_rejection: rhodium-coated mirror
# Facility.name: SESAME Synchrotron
# Facility.energy: 2.50 GeV
# Facility.xray_source: SESAME Bending Magnet
# Scan.start_time: 2021-10-13T23:21:52
# Detector.IC1: 15cm  N2
# Detector.IC2: 30cm  N2
# Detector.IC3: 15cm  N2
# Sample.name: Cu
# Sample.prep: Cu metal foil
# ///
# Cu foil Room Temperature
# measured at beamline 08-BM XAFS/XRF Beamline
#----
#(1)ENERGY-RBK   (2)IC1[V]   (3)IC2[V]   (4)IC3[V]   (5)TRANS   (6)TransRef
1.524994e+01   1.000000e-16   1.000000e-16   5.143069e-03   0.000000e+00   -3.157126e+01
1.525093e+01   1.000000e-16   1.000000e-16   5.077270e-03   0.000000e+00   -3.155838e+01
1.525201e+01   1.000000e-16   1.000000e-16   5.103733e-03   0.000000e+00   -3.156358e+01
1.525300e+01   1.000000e-16   1.000000e-16   4.945674e-03   0.000000e+00   -3.153212e+01
1.525399e+01   1.000000e-16   1.000000e-16   5.162856e-03   0.000000e+00   -3.157510e+01
1.525501e+01   1.000000e-16   1.000000e-16   5.197424e-03   0.000000e+00   -3.158177e+01
1.525603e+01   1.000000e-16   1.000000e-16   5.029590e-03   0.000000e+00   -3.154894e+01
1.525699e+01   1.000000e-16   1.000000e-16   5.019816e-03   0.000000e+00   -3.154700e+01
1.525801e+01   1.000000e-16   1.000000e-16   5.151651e-03   0.000000e+00   -3.157292e+01
1.525903e+01   1.000000e-16   1.000000e-16   5.205768e-03   0.000000e+00   -3.158337e+01
1.526002e+01   1.000000e-16   1.000000e-16   5.071072e-03   0.000000e+00   -3.155716e+01
1.526500e+01   1.000000e-16   1.000000e-16   5.105163e-03   0.000000e+00   -3.156386e+01

File: Test_Scan(1)2021_10_13T23_27_26.xdi
# XDI/1.0 SED_XAFS/0.9
# Column.1: energy eV
# Column.2: Ionization Chamber (IC) number 1
# Column.3: Ionization Chamber (IC) number 2
# Column.4: Ionization Chamber (IC) number 3
# Column.5: Transmission (log(IC1 current/ IC2 current))
# Column.6: Transmission Reference (log(IC2 current/IC3 current))
# Base.file_name: Test
# Scan.edge_energy: 8980.0
# Mono.name: Si 111
# Mono.d_spacing: 3.13553
# Beamline.name: 13ID
# Beamline.collimation: slits
# Beamline.focusing: no
# Beamline.harmonic_rejection: rhodium-coated mirror
# Facility.name: SESAME Synchrotron
# Facility.energy: 2.50 GeV
# Facility.xray_source: SESAME Bending Magnet
# Scan.start_time: 2021-10-13T23:27:32
# Detector.IC1: 15cm  N2
# Detector.IC2: 30cm  N2
# Detector.IC3: 15cm  N2
# Sample.name: Cu
# Sample.prep: Cu metal foil
# ///
# Cu foil Room Temperature
# measured at beamline 08-BM XAFS/XRF Beamline
#----
#(1)ENERGY-RBK   (2)IC1[V]   (3)IC2[V]   (4)IC3[V]   (5)TRANS   (6)TransRef
1.524992e+01   1.000000e-16   1.000000e-16   5.041987e-03   0.000000e+00   -3.155141e+01
1.525102e+01   1.000000e-16   1.000000e-16   5.048424e-03   0.000000e+00   -3.155268e+01
1.525201e+01   1.000000e-16   1.000000e-16   5.112077e-03   0.000000e+00   -3.156521e+01
1.525300e+01   1.000000e-16   1.000000e-16   5.162380e-03   0.000000e+00   -3.157500e+01
1.525399e+01   1.000000e-16   1.000000e-16   5.119467e-03   0.000000e+00   -3.156666e+01
1.525501e+01   1.000000e-16   1.000000e-16   5.119467e-03   0.000000e+00   -3.156666e+01
1.525600e+01   1.000000e-16   1.000000e-16   4.990969e-03   0.000000e+00   -3.154124e+01
1.525696e+01   1.000000e-16   1.000000e-16   5.075601e-03   0.000000e+00   -3.155805e+01
1.525803e+01   1.000000e-16   1.000000e-16   5.107070e-03   0.000000e+00   -3.156423e+01
1.525903e+01   1.000000e-16   1.000000e-16   5.029829e-03   0.000000e+00   -3.154899e+01
1.525999e+01   1.000000e-16   1.000000e-16   4.937568e-03   0.000000e+00   -3.153048e+01
1.526098e+01   1.000000e-16   1.000000e-16   5.091098e-03   0.000000e+00   -3.156110e+01
1.526200e+01   1.000000e-16   1.000000e-16   5.091098e-03   0.000000e+00   -3.156110e+01
1.526299e+01   1.000000e-16   1.000000e-16   4.973089e-03   0.000000e+00   -3.153765e+01
1.526398e+01   1.000000e-16   1.000000e-16   4.973089e-03   0.000000e+00   -3.153765e+01
1.526500e+01   1.000000e-16   1.000000e-16   5.061059e-03   0.000000e+00   -3.155518e+01
1.526599e+01   1.000000e-16   1.000000e-16   5.150697e-03   0.000000e+00   -3.157274e+01
1.526701e+01   1.000000e-16   1.000000e-16   5.023153e-03   0.000000e+00   -3.154766e+01
1.526800e+01   1.000000e-16   1.000000e-16   5.079655e-03   0.000000e+00   -3.155885e+01
1.526900e+01   1.000000e-16   1.000000e-16   5.081800e-03   0.000000e+00   -3.155927e+01

File: Test_Scan(1)2021_10_14T00_00_09.xdi
# XDI/1.0 SED_XAFS/0.9
# Column.1: energy eV
# Column.2: Ionization Chamber (IC) number 1
# Column.3: Ionization Chamber (IC) number 2
# Column.4: Ionization Chamber (IC) number 3
# Column.5: Transmission (log(IC1 current/ IC2 current))
# Column.6: Transmission Reference (log(IC2 current/IC3 current))
# Column.7: KETEK-If
# Column.8: KETEK-FLUOR
# Column.9: KETEK-ROI_0[c/s]
# Column.10: KETEK-ROI_1[c/s]
# Column.11: KETEK-ROI_2[c/s]
# Column.12: KETEK-e-time[sec]
# Column.13: KETEK-DEADTIME[%]
# Column.14: KETEK-INT_TIME[sec]
# Column.15: KETEK-OCR
# Column.16: KETEK-ICR
# Base.file_name: Test
# Scan.edge_energy: 8980.0
# Mono.name: Si 111
# Mono.d_spacing: 3.13553
# Beamline.name: 13ID
# Beamline.collimation: slits
# Beamline.focusing: no
# Beamline.harmonic_rejection: rhodium-coated mirror
# Facility.name: SESAME Synchrotron
# Facility.energy: 2.50 GeV
# Facility.xray_source: SESAME Bending Magnet
# Scan.start_time: 2021-10-14T00:00:17
# Detector.IC1: 15cm  N2
# Detector.IC2: 30cm  N2
# Detector.IC3: 15cm  N2
# Sample.name: Cu
# Sample.prep: Cu metal foil
# ///
# Cu foil Room Temperature
# measured at beamline 08-BM XAFS/XRF Beamline
#----
#(1)ENERGY-RBK   (2)IC1[V]   (3)IC2[V]   (4)IC3[V]   (5)TRANS   (6)TransRef   (7)KETEK-If   (8)KETEK-FLUOR   (9)KETEK-ROI_0[c/s]   (10)KETEK-ROI_1[c/s]   (11)KETEK-ROI_2[c/s]   (12)KETEK-e-time[sec]   (13)KETEK-DEADTIME[%]   (14)KETEK-INT_TIME[sec]   (15)KETEK-OCR   (16)KETEK-ICR
1.524997e+01  1.000000e-16  1.000000e-16  4.953779e-03  0.000000e+00  -3.153376e+01  0.000000e+00  0.000000e+00  0.000000e+00  0.000000e+00  0.000000e+00  4.758643e-01  4.588565e-01  4.780579e-01  0.000000e+00  0.000000e+00
1.525096e+01  1.000000e-16  1.000000e-16  5.026968e-03  0.000000e+00  -3.154842e+01  0.000000e+00  0.000000e+00  0.000000e+00  0.000000e+00  0.000000e+00  5.028326e-01  1.602415e-01  5.036397e-01  0.000000e+00  0.000000e+00
1.525201e+01  1.000000e-16  1.000000e-16  5.049855e-03  0.000000e+00  -3.155297e+01  0.000000e+00  0.000000e+00  0.000000e+00  0.000000e+00  0.000000e+00  5.029789e-01  1.124824e-01  5.035453e-01  0.000000e+00  0.000000e+00
1.525303e+01  1.000000e-16  1.000000e-16  5.062967e-03  0.000000e+00  -3.155556e+01  0.000000e+00  0.000000e+00  0.000000e+00  0.000000e+00  0.000000e+00  5.032902e-01  1.131107e-01  5.038602e-01  0.000000e+00  0.000000e+00
1.525402e+01  1.000000e-16  1.000000e-16  5.139254e-03  0.000000e+00  -3.157051e+01  0.000000e+00  0.000000e+00  0.000000e+00  0.000000e+00  0.000000e+00  5.030618e-01  1.126543e-01  5.036291e-01  0.000000e+00  0.000000e+00
1.525501e+01  1.000000e-16  1.000000e-16  5.060344e-03  0.000000e+00  -3.155504e+01  0.000000e+00  0.000000e+00  0.000000e+00  0.000000e+00  0.000000e+00  5.032941e-01  1.145055e-01  5.038710e-01  0.000000e+00  0.000000e+00
1.525600e+01  1.000000e-16  1.000000e-16  5.049377e-03  0.000000e+00  -3.155287e+01  0.000000e+00  0.000000e+00  0.000000e+00  0.000000e+00  0.000000e+00  5.028998e-01  1.139603e-01  5.034736e-01  0.000000e+00  0.000000e+00
1.525699e+01  1.000000e-16  1.000000e-16  5.155466e-03  0.000000e+00  -3.157366e+01  0.000000e+00  0.000000e+00  0.000000e+00  0.000000e+00  0.000000e+00  5.031053e-01  1.199422e-01  5.037094e-01  0.000000e+00  0.000000e+00
1.525803e+01  1.000000e-16  1.000000e-16  5.080846e-03  0.000000e+00  -3.155908e+01  0.000000e+00  0.000000e+00  0.000000e+00  0.000000e+00  0.000000e+00  5.031510e-01  1.128882e-01  5.037197e-01  0.000000e+00  0.000000e+00
1.525903e+01  1.000000e-16  1.000000e-16  5.154035e-03  0.000000e+00  -3.157339e+01  0.000000e+00  0.000000e+00  0.000000e+00  0.000000e+00  0.000000e+00  5.029174e-01  1.117343e-01  5.034800e-01  0.000000e+00  0.000000e+00

File: Test_Scan(1)2021_10_14T10_02_35.xdi
# XDI/1.0 SED_XAFS/0.9
# Column.1: energy eV
# Column.2: Ionization Chamber (IC) number 1
# Column.3: Ionization Chamber (IC) number 2
# Column.4: Ionization Chamber (IC) number 3
# Column.5: Transmission (log(IC1 current/ IC2 current))
# Column.6: Transmission Reference (log(IC2 current/IC3 current))
# Column.7: KETEK-If
# Column.8: KETEK-FLUOR
# Column.9: KETEK-ROI_0[c/s]
# Column.10: KETEK-ROI_1[c/s]
# Column.11: KETEK-ROI_2[c/s]
# Column.12: KETEK-e-time[sec]
# Column.13: KETEK-DEADTIME[%]
# Column.14: KETEK-INT_TIME[sec]
# Column.15: KETEK-OCR
# Column.16: KETEK-ICR
# Base.file_name: Test
# Scan.edge_energy: 8980.0
# Mono.name: Si 111
# Mono.d_spacing: 3.13553
# Beamline.name: 13ID
# Beamline.collimation: slits
# Beamline.focusing: no
# Beamline.harmonic_rejection: rhodium-coated mirror
# Facility.name: SESAME Synchrotron
# Facility.energy: 2.50 GeV
# Facility.xray_source: SESAME Bending Magnet
# Scan.start_time: 2021-10-14T10:02:54
# Detector.IC1: 15cm  N2
# Detector.IC2: 30cm  N2
# Detector.IC3: 15cm  N2
# Sample.name: Cu
# Sample.prep: Cu metal foil
# ///
# Cu foil Room Temperature
# measured at beamline 08-BM XAFS/XRF Beamline
#----
#(1)energy   (2)IC1[V]   (3)IC2[V]   (4)IC3[V]   (5)TRANS   (6)TransRef   (7)KETEK-If   (8)KETEK-FLUOR   (9)KETEK-ROI_0[c/s]   (10)KETEK-ROI_1[c/s]   (11)KETEK-ROI_2[c/s]   (12)KETEK-e-time[sec]   (13)KETEK-DEADTIME[%]   (14)KETEK-INT_TIME[sec]   (15)KETEK-OCR   (16)KETEK-ICR
1.524994e+01  1.000000e-16  1.000000e-16  5.000267e-03  0.000000e+00  -3.154310e+01  0.000000e+00  0.000000e+00  0.000000e+00  0.000000e+00  0.000000e+00  4.863216e-01  4.553591e-01  4.885462e-01  0.000000e+00  0.000000e+00
1.525096e+01  1.000000e-16  1.000000e-16  5.096581e-03  0.000000e+00  -3.156218e+01  0.000000e+00  0.000000e+00  0.000000e+00  0.000000e+00  0.000000e+00  5.030656e-01  1.607381e-01  5.038755e-01  0.000000e+00  0.000000e+00
1.525201e+01  1.000000e-16  1.000000e-16  5.044371e-03  0.000000e+00  -3.155188e+01  0.000000e+00  0.000000e+00  0.000000e+00  0.000000e+00  0.000000e+00  5.028429e-01  1.126398e-01  5.034099e-01  0.000000e+00  0.000000e+00
1.525300e+01  1.000000e-16  1.000000e-16  5.183597e-03  0.000000e+00  -3.157911e+01  0.000000e+00  0.000000e+00  0.000000e+00  0.000000e+00  0.000000e+00  5.031827e-01  9.619050e-02  5.036672e-01  0.000000e+00  0.000000e+00
1.525399e+01  1.000000e-16  1.000000e-16  4.965461e-03  0.000000e+00  -3.153611e+01  0.000000e+00  0.000000e+00  0.000000e+00  0.000000e+00  0.000000e+00  5.032573e-01  1.117224e-01  5.038202e-01  0.000000e+00  0.000000e+00
1.525504e+01  1.000000e-16  1.000000e-16  5.058675e-03  0.000000e+00  -3.155471e+01  0.000000e+00  0.000000e+00  0.000000e+00  0.000000e+00  0.000000e+00  5.030240e-01  9.120463e-02  5.034832e-01  0.000000e+00  0.000000e+00
1.525600e+01  1.000000e-16  1.000000e-16  5.049139e-03  0.000000e+00  -3.155282e+01  0.000000e+00  0.000000e+00  0.000000e+00  0.000000e+00  0.000000e+00  5.028954e-01  9.694401e-02  5.033834e-01  0.000000e+00  0.000000e+00
1.525699e+01  1.000000e-16  1.000000e-16  4.967130e-03  0.000000e+00  -3.153645e+01  0.000000e+00  0.000000e+00  0.000000e+00  0.000000e+00  0.000000e+00  5.031757e-01  9.549363e-02  5.036566e-01  0.000000e+00  0.000000e+00
1.525801e+01  1.000000e-16  1.000000e-16  5.110408e-03  0.000000e+00  -3.156489e+01  0.000000e+00  0.000000e+00  0.000000e+00  0.000000e+00  0.000000e+00  5.028704e-01  1.115543e-01  5.034320e-01  0.000000e+00  0.000000e+00
1.525903e+01  1.000000e-16  1.000000e-16  5.127096e-03  0.000000e+00  -3.156815e+01  0.000000e+00  0.000000e+00  0.000000e+00  0.000000e+00  0.000000e+00  5.033098e-01  1.110764e-01  5.038694e-01  0.000000e+00  0.000000e+00

File: Test_Scan(2)2021_10_13T22_29_01.xdi
# XDI/1.0 SED_XAFS/0.9
# Column.1: energy eV
# Column.2: Ionization Chamber (IC) number 1
# Column.3: Ionization Chamber (IC) number 2
# Column.4: Ionization Chamber (IC) number 3
# Column.5: Transmission (log(IC1 current/ IC2 current))
# Column.6: Transmission Reference (log(IC2 current/IC3 current))
# Base.file_name: Test
# Scan.edge_energy: 8980.0
# Mono.name: Si 111
# Mono.d_spacing: 3.13553
# Beamline.name: 13ID
# Beamline.collimation: slits
# Beamline.focusing: no
# Beamline.harmonic_rejection: rhodium-coated mirror
# Facility.name: SESAME Synchrotron
# Facility.energy: 2.50 GeV
# Facility.xray_source: SESAME Bending Magnet
# Scan.start_time: 2021-10-13T22:35:17
# Detector.IC1: 15cm  N2
# Detector.IC2: 30cm  N2
# Detector.IC3: 15cm  N2
# Sample.name: Cu
# Sample.prep: Cu metal foil
# ///
# Cu foil Room Temperature
# measured at beamline 08-BM XAFS/XRF Beamline
#----
#(1)ENERGY-RBK   (2)IC1[V]   (3)IC2[V]   (4)IC3[V]   (5)TRANS   (6)TransRef
1.525000e+01   1.000000e-16   1.000000e-16   5.201953e-03   0.000000e+00   -3.158264e+01
1.525093e+01   1.000000e-16   1.000000e-16   5.205530e-03   0.000000e+00   -3.158333e+01
1.525198e+01   1.000000e-16   1.000000e-16   5.145214e-03   0.000000e+00   -3.157167e+01
1.525300e+01   1.000000e-16   1.000000e-16   5.106356e-03   0.000000e+00   -3.156409e+01
1.525399e+01   1.000000e-16   1.000000e-16   5.019816e-03   0.000000e+00   -3.154700e+01
1.525498e+01   1.000000e-16   1.000000e-16   5.019816e-03   0.000000e+00   -3.154700e+01
1.525600e+01   1.000000e-16   1.000000e-16   5.205053e-03   0.000000e+00   -3.158324e+01
1.525699e+01   1.000000e-16   1.000000e-16   5.144976e-03   0.000000e+00   -3.157163e+01
1.525798e+01   1.000000e-16   1.000000e-16   5.180498e-03   0.000000e+00   -3.157851e+01
1.525900e+01   1.000000e-16   1.000000e-16   5.180498e-03   0.000000e+00   -3.157851e+01
1.526002e+01   1.000000e-16   1.000000e-16   5.075840e-03   0.000000e+00   -3.155810e+01
1.526101e+01   1.000000e-16   1.000000e-16   5.211013e-03   0.000000e+00   -3.158438e+01
1.526200e+01   1.000000e-16   1.000000e-16   5.052477e-03   0.000000e+00   -3.155348e+01
1.526299e+01   1.000000e-16   1.000000e-16   5.113030e-03   0.000000e+00   -3.156540e+01
1.526401e+01   1.000000e-16   1.000000e-16   4.979527e-03   0.000000e+00   -3.153894e+01
1.526503e+01   1.000000e-16   1.000000e-16   5.085615e-03   0.000000e+00   -3.156002e+01
1.526605e+01   1.000000e-16   1.000000e-16   5.095150e-03   0.000000e+00   -3.156190e+01
1.526704e+01   1.000000e-16   1.000000e-16   5.118990e-03   0.000000e+00   -3.156656e+01
1.526803e+01   1.000000e-16   1.000000e-16   5.225555e-03   0.000000e+00   -3.158717e+01
1.526900e+01   1.000000e-16   1.000000e-16   5.094674e-03   0.000000e+00   -3.156180e+01

File: Test_Scan(2)2021_10_13T23_21_23.xdi
# XDI/1.0 SED_XAFS/0.9
# Column.1: energy eV
# Column.2: Ionization Chamber (IC) number 1
# Column.3: Ionization Chamber (IC) number 2
# Column.4: Ionization Chamber (IC) number 3
# Column.5: Transmission (log(IC1 current/ IC2 current))
# Column.6: Transmission Reference (log(IC2 current/IC3 current))
# Base.file_name: Test
# Scan.edge_energy: 8980.0
# Mono.name: Si 111
# Mono.d_spacing: 3.13553
# Beamline.name: 13ID
# Beamline.collimation: slits
# Beamline.focusing: no
# Beamline.harmonic_rejection: rhodium-coated mirror
# Facility.name: SESAME Synchrotron
# Facility.energy: 2.50 GeV
# Facility.xray_source: SESAME Bending Magnet
# Scan.start_time: 2021-10-13T23:23:07
# Detector.IC1: 15cm  N2
# Detector.IC2: 30cm  N2
# Detector.IC3: 15cm  N2
# Sample.name: Cu
# Sample.prep: Cu metal foil
# ///
# Cu foil Room Temperature
# measured at beamline 08-BM XAFS/XRF Beamline
#----
#(1)ENERGY-RBK   (2)IC1[V]   (3)IC2[V]   (4)IC3[V]   (5)TRANS   (6)TransRef
1.525000e+01   1.000000e-16   1.000000e-16   5.174538e-03   0.000000e+00   -3.157736e+01
1.525091e+01   1.000000e-16   1.000000e-16   5.064874e-03   0.000000e+00   -3.155594e+01
1.525201e+01   1.000000e-16   1.000000e-16   4.861518e-03   0.000000e+00   -3.151496e+01
1.525300e+01   1.000000e-16   1.000000e-16   5.028876e-03   0.000000e+00   -3.154880e+01
1.525399e+01   1.000000e-16   1.000000e-16   4.998598e-03   0.000000e+00   -3.154276e+01
1.525498e+01   1.000000e-16   1.000000e-16   4.999790e-03   0.000000e+00   -3.154300e+01
1.525600e+01   1.000000e-16   1.000000e-16   5.091575e-03   0.000000e+00   -3.156119e+01
1.525699e+01   1.000000e-16   1.000000e-16   5.109931e-03   0.000000e+00   -3.156479e+01
1.525798e+01   1.000000e-16   1.000000e-16   5.078462e-03   0.000000e+00   -3.155861e+01
1.525900e+01   1.000000e-16   1.000000e-16   5.059867e-03   0.000000e+00   -3.155495e+01
1.526002e+01   1.000000e-16   1.000000e-16   5.054146e-03   0.000000e+00   -3.155382e+01
1.526503e+01   1.000000e-16   1.000000e-16   5.077270e-03   0.000000e+00   -3.155838e+01

File: test_with_Malik_Scan(1)2021_10_17T10_24_23.xdi
# XDI/1.0 SED_XAFS/0.9
# Column.1: energy eV
# Column.2: Ionization Chamber (IC) number 1
# Column.3: Ionization Chamber (IC) number 2
# Column.4: Ionization Chamber (IC) number 3
# Column.5: Transmission (log(IC1 current/ IC2 current))
# Column.6: Transmission Reference (log(IC2 current/IC3 current))
# Base.file_name: test_with_Malik
# Element.edge: L1
# Mono.name: Si 111
# Mono.d_spacing: 3.13553
# Beamline.name: XAFS/XRF Beamline (08-BM)
# Beamline.collimation: slits
# Beamline.focusing: no
# Beamline.harmonic_rejection: mirror coating VCM: Pt, VFM: Si
# Facility.name: SESAME Synchrotron-light
# Facility.energy: 2.50 GeV
# Facility.current: -0.0655044
# Facility.xray_source: SESAME Bending Magnet
# Scan.start_time: 2021-10-17T10:24:23
# Scan.end_time: 2021-10-17T10:24:28
# Scan.edge_energy: 15000
# Scan.number: 1/1 -- intervals: 2, samples: 1
# Detector.IC1: 15cm  N2
# Detector.IC2: 30cm  N2
# Detector.IC3: 15cm  N2
# Element.symbol: As
# Sample.stoichiometry: AsO2
# Sample.prep: nothin
# ///
# Experiment comments and remarks: nothing 2
# User comments and remarks: nothing 1
#----
#(1)energy   (2)IC1[V]   (3)IC2[V]   (4)IC3[V]   (5)TRANS   (6)TransRef
1.524994e+01  1.000000e-16  1.000000e-16  4.916350e-03  0.000000e+00  -3.152617e+01
1.525096e+01  1.000000e-16  1.000000e-16  4.920880e-03  0.000000e+00  -3.152709e+01
1.525201e+01  1.000000e-16  1.000000e-16  4.908245e-03  0.000000e+00  -3.152452e+01
1.525300e+01  1.000000e-16  1.000000e-16  4.915874e-03  0.000000e+00  -3.152608e+01
1.525396e+01  1.000000e-16  1.000000e-16  4.976189e-03  0.000000e+00  -3.153827e+01
1.525501e+01  1.000000e-16  1.000000e-16  5.021723e-03  0.000000e+00  -3.154738e+01
1.525600e+01  1.000000e-16  1.000000e-16  4.916112e-03  0.000000e+00  -3.152612e+01
1.525699e+01  1.000000e-16  1.000000e-16  4.919688e-03  0.000000e+00  -3.152685e+01
1.525803e+01  1.000000e-16  1.000000e-16  5.006942e-03  0.000000e+00  -3.154443e+01
1.525900e+01  1.000000e-16  1.000000e-16  5.006942e-03  0.000000e+00  -3.154443e+01
1.525999e+01  1.000000e-16  1.000000e-16  4.945197e-03  0.000000e+00  -3.153202e+01
1.526098e+01  1.000000e-16  1.000000e-16  4.945197e-03  0.000000e+00  -3.153202e+01
1.526200e+01  1.000000e-16  1.000000e-16  5.032690e-03  0.000000e+00  -3.154956e+01
1.526299e+01  1.000000e-16  1.000000e-16  4.981910e-03  0.000000e+00  -3.153942e+01
1.526398e+01  1.000000e-16  1.000000e-16  4.891795e-03  0.000000e+00  -3.152117e+01
1.526503e+01  1.000000e-16  1.000000e-16  4.920165e-03  0.000000e+00  -3.152695e+01
1.526599e+01  1.000000e-16  1.000000e-16  5.062490e-03  0.000000e+00  -3.155546e+01
1.526701e+01  1.000000e-16  1.000000e-16  4.887742e-03  0.000000e+00  -3.152034e+01
1.526800e+01  1.000000e-16  1.000000e-16  5.021723e-03  0.000000e+00  -3.154738e+01
1.526902e+01  1.000000e-16  1.000000e-16  4.892987e-03  0.000000e+00  -3.152141e+01