Folder: HESEBScanTool/tmp/SEM[1]/XAFS/20185101/data/csv (part 3)

File: regdf_Scan(1)2021_10_12T22_04_55.xdi
# XDI/1.0 SED_XAFS/0.9
# Column.1: energy eV
# Column.2: Ionization Chamber (IC) number 1
# Column.3: Ionization Chamber (IC) number 2
# Column.4: Ionization Chamber (IC) number 3
# Column.5: Transmission (log(IC1 current/ IC2 current))
# Column.6: Transmission Reference (log(IC2 current/IC3 current))
# Column.7: KETEK-If
# Column.8: KETEK-FLUOR
# Column.9: KETEK-ROI_0[c/s]
# Column.10: KETEK-ROI_1[c/s]
# Column.11: KETEK-ROI_2[c/s]
# Column.12: KETEK-ROI_3[c/s]
# Column.13: KETEK-ROI_4[c/s]
# Column.14: KETEK-ROI_5[c/s]
# Column.15: KETEK-ROI_6[c/s]
# Column.16: KETEK-ROI_7[c/s]
# Column.17: KETEK-e-time[sec]
# Column.18: KETEK-DEADTIME[%]
# Column.19: KETEK-INT_TIME[sec]
# Column.20: KETEK-OCR
# Column.21: KETEK-ICR
# Base.file_name: regdf
# Scan.edge_energy: 8980.0
# Mono.name: Si 111
# Mono.d_spacing: 3.13553
# Beamline.name: 13ID
# Beamline.collimation: slits
# Beamline.focusing: no
# Beamline.harmonic_rejection: rhodium-coated mirror
# Facility.name: SESAME Synchrotron
# Facility.energy: 2.50 GeV
# Facility.xray_source: SESAME Bending Magnet
# Scan.start_time: 2021-10-12T22:05:09
# Detector.IC1: 15cm  d
# Detector.IC2: 30cm  d
# Detector.IC3: 15cm  d
# Sample.name: Cu
# Sample.prep: Cu metal foil
# ///
# Cu foil Room Temperature
# measured at beamline 08-BM XAFS/XRF Beamline
#----
#(1)ENERGY-RBK   (2)IC1[V]   (3)IC2[V]   (4)IC3[V]   (5)TRANS   (6)TransRef   (7)KETEK-If   (8)KETEK-FLUOR   (9)KETEK-ROI_0[c/s]   (10)KETEK-ROI_1[c/s]   (11)KETEK-ROI_2[c/s]   (12)KETEK-ROI_3[c/s]   (13)KETEK-ROI_4[c/s]   (14)KETEK-ROI_5[c/s]   (15)KETEK-ROI_6[c/s]   (16)KETEK-ROI_7[c/s]   (17)KETEK-e-time[sec]   (18)KETEK-DEADTIME[%]   (19)KETEK-INT_TIME[sec]   (20)KETEK-OCR   (21)KETEK-ICR
1.524994e+01 1.000000e-16 1.000000e-16 5.107309e-03 0.000000e+00 -3.156428e+01 0.000000e+00 0.000000e+00 0.000000e+00 0.000000e+00 0.000000e+00 0.000000e+00 0.000000e+00 0.000000e+00 0.000000e+00 0.000000e+00 9.970432e-01 4.401294e-01 1.001451e+00 0.000000e+00 0.000000e+00
1.525093e+01 1.000000e-16 1.000000e-16 5.167862e-03 0.000000e+00 -3.157607e+01 0.000000e+00 0.000000e+00 0.000000e+00 0.000000e+00 0.000000e+00 0.000000e+00 0.000000e+00 0.000000e+00 0.000000e+00 0.000000e+00 1.006580e+00 9.835933e-02 1.007571e+00 0.000000e+00 0.000000e+00
1.525201e+01 1.000000e-16 1.000000e-16 5.181451e-03 0.000000e+00 -3.157869e+01 0.000000e+00 0.000000e+00 0.000000e+00 0.000000e+00 0.000000e+00 0.000000e+00 0.000000e+00 0.000000e+00 0.000000e+00 0.000000e+00 1.006465e+00 1.181673e-01 1.007656e+00 0.000000e+00 0.000000e+00
1.525300e+01 1.000000e-16 1.000000e-16 5.258216e-03 0.000000e+00 -3.159340e+01 0.000000e+00 0.000000e+00 0.000000e+00 0.000000e+00 0.000000e+00 0.000000e+00 0.000000e+00 0.000000e+00 0.000000e+00 0.000000e+00 1.006529e+00 1.166057e-01 1.007704e+00 0.000000e+00 0.000000e+00
1.525399e+01 1.000000e-16 1.000000e-16 5.166909e-03 0.000000e+00 -3.157588e+01 0.000000e+00 0.000000e+00 0.000000e+00 0.000000e+00 0.000000e+00 0.000000e+00 0.000000e+00 0.000000e+00 0.000000e+00 0.000000e+00 1.006556e+00 1.034063e-01 1.007598e+00 0.000000e+00 0.000000e+00
1.525504e+01 1.000000e-16 1.000000e-16 5.108501e-03 0.000000e+00 -3.156451e+01 0.000000e+00 0.000000e+00 0.000000e+00 0.000000e+00 0.000000e+00 0.000000e+00 0.000000e+00 0.000000e+00 0.000000e+00 0.000000e+00 1.006528e+00 1.036630e-01 1.007572e+00 0.000000e+00 0.000000e+00
1.525605e+01 1.000000e-16 1.000000e-16 5.298506e-03 0.000000e+00 -3.160103e+01 0.000000e+00 0.000000e+00 0.000000e+00 0.000000e+00 0.000000e+00 0.000000e+00 0.000000e+00 0.000000e+00 0.000000e+00 0.000000e+00 1.006575e+00 9.648776e-02 1.007548e+00 0.000000e+00 0.000000e+00
1.525699e+01 1.000000e-16 1.000000e-16 5.065828e-03 0.000000e+00 -3.155612e+01 0.000000e+00 0.000000e+00 0.000000e+00 0.000000e+00 0.000000e+00 0.000000e+00 0.000000e+00 0.000000e+00 0.000000e+00 0.000000e+00 1.006360e+00 1.173865e-01 1.007543e+00 0.000000e+00 0.000000e+00
1.525801e+01 1.000000e-16 1.000000e-16 5.236760e-03 0.000000e+00 -3.158931e+01 0.000000e+00 0.000000e+00 0.000000e+00 0.000000e+00 0.000000e+00 0.000000e+00 0.000000e+00 0.000000e+00 0.000000e+00 0.000000e+00 1.006329e+00 1.164702e-01 1.007503e+00 0.000000e+00 0.000000e+00
1.525900e+01 1.000000e-16 1.000000e-16 5.211490e-03 0.000000e+00 -3.158447e+01 0.000000e+00 0.000000e+00 0.000000e+00 0.000000e+00 0.000000e+00 0.000000e+00 0.000000e+00 0.000000e+00 0.000000e+00 0.000000e+00 1.006456e+00 1.177877e-01 1.007643e+00 0.000000e+00 0.000000e+00

File: regdf_Scan(1)2021_10_12T22_07_34.xdi
# XDI/1.0 SED_XAFS/0.9
# Column.1: energy eV
# Column.2: Ionization Chamber (IC) number 1
# Column.3: Ionization Chamber (IC) number 2
# Column.4: Ionization Chamber (IC) number 3
# Column.5: Transmission (log(IC1 current/ IC2 current))
# Column.6: Transmission Reference (log(IC2 current/IC3 current))
# Column.7: KETEK-If
# Column.8: KETEK-FLUOR
# Column.9: KETEK-ROI_0[c/s]
# Column.10: KETEK-ROI_1[c/s]
# Column.11: KETEK-ROI_2[c/s]
# Column.12: KETEK-ROI_3[c/s]
# Column.13: KETEK-ROI_4[c/s]
# Column.14: KETEK-ROI_5[c/s]
# Column.15: KETEK-ROI_6[c/s]
# Column.16: KETEK-ROI_7[c/s]
# Column.17: KETEK-e-time[sec]
# Column.18: KETEK-DEADTIME[%]
# Column.19: KETEK-INT_TIME[sec]
# Column.20: KETEK-OCR
# Column.21: KETEK-ICR
# Base.file_name: regdf
# Scan.edge_energy: 8980.0
# Mono.name: Si 111
# Mono.d_spacing: 3.13553
# Beamline.name: 13ID
# Beamline.collimation: slits
# Beamline.focusing: no
# Beamline.harmonic_rejection: rhodium-coated mirror
# Facility.name: SESAME Synchrotron
# Facility.energy: 2.50 GeV
# Facility.xray_source: SESAME Bending Magnet
# Scan.start_time: 2021-10-12T22:07:41
# Detector.IC1: 15cm  d
# Detector.IC2: 30cm  d
# Detector.IC3: 15cm  d
# Sample.name: Cu
# Sample.prep: Cu metal foil
# ///
# Cu foil Room Temperature
# measured at beamline 08-BM XAFS/XRF Beamline
#----
#(1)ENERGY-RBK   (2)IC1[V]   (3)IC2[V]   (4)IC3[V]   (5)TRANS   (6)TransRef   (7)KETEK-If   (8)KETEK-FLUOR   (9)KETEK-ROI_0[c/s]   (10)KETEK-ROI_1[c/s]   (11)KETEK-ROI_2[c/s]   (12)KETEK-ROI_3[c/s]   (13)KETEK-ROI_4[c/s]   (14)KETEK-ROI_5[c/s]   (15)KETEK-ROI_6[c/s]   (16)KETEK-ROI_7[c/s]   (17)KETEK-e-time[sec]   (18)KETEK-DEADTIME[%]   (19)KETEK-INT_TIME[sec]   (20)KETEK-OCR   (21)KETEK-ICR
1.524997e+01 1.000000e-16 1.000000e-16 5.133771e-03 0.000000e+00 -3.156945e+01 0.000000e+00 0.000000e+00 0.000000e+00 0.000000e+00 0.000000e+00 0.000000e+00 0.000000e+00 0.000000e+00 0.000000e+00 0.000000e+00 9.235958e-01 4.434834e-01 9.277101e-01 0.000000e+00 0.000000e+00
1.525091e+01 1.000000e-16 1.000000e-16 5.233184e-03 0.000000e+00 -3.158863e+01 0.000000e+00 0.000000e+00 0.000000e+00 0.000000e+00 0.000000e+00 0.000000e+00 0.000000e+00 0.000000e+00 0.000000e+00 0.000000e+00 1.006636e+00 1.179888e-01 1.007825e+00 0.000000e+00 0.000000e+00
1.525201e+01 1.000000e-16 1.000000e-16 5.184789e-03 0.000000e+00 -3.157934e+01 0.000000e+00 0.000000e+00 0.000000e+00 0.000000e+00 0.000000e+00 0.000000e+00 0.000000e+00 0.000000e+00 0.000000e+00 0.000000e+00 1.006603e+00 1.185001e-01 1.007797e+00 0.000000e+00 0.000000e+00
1.525300e+01 1.000000e-16 1.000000e-16 5.181213e-03 0.000000e+00 -3.157865e+01 0.000000e+00 0.000000e+00 0.000000e+00 0.000000e+00 0.000000e+00 0.000000e+00 0.000000e+00 0.000000e+00 0.000000e+00 0.000000e+00 1.006633e+00 1.181159e-01 1.007823e+00 0.000000e+00 0.000000e+00
1.525399e+01 1.000000e-16 1.000000e-16 5.176921e-03 0.000000e+00 -3.157782e+01 0.000000e+00 0.000000e+00 0.000000e+00 0.000000e+00 0.000000e+00 0.000000e+00 0.000000e+00 0.000000e+00 0.000000e+00 0.000000e+00 1.006155e+00 1.182672e-01 1.007346e+00 0.000000e+00 9.938831e-01
1.525504e+01 1.000000e-16 1.000000e-16 5.059390e-03 0.000000e+00 -3.155485e+01 0.000000e+00 0.000000e+00 0.000000e+00 0.000000e+00 0.000000e+00 0.000000e+00 0.000000e+00 0.000000e+00 0.000000e+00 0.000000e+00 1.006327e+00 1.166608e-01 1.007502e+00 0.000000e+00 0.000000e+00
1.525603e+01 1.000000e-16 1.000000e-16 5.033643e-03 0.000000e+00 -3.154975e+01 0.000000e+00 0.000000e+00 0.000000e+00 0.000000e+00 0.000000e+00 0.000000e+00 0.000000e+00 0.000000e+00 0.000000e+00 0.000000e+00 1.006194e+00 1.045860e-01 1.007248e+00 0.000000e+00 0.000000e+00
1.525699e+01 1.000000e-16 1.000000e-16 5.189557e-03 0.000000e+00 -3.158025e+01 0.000000e+00 0.000000e+00 0.000000e+00 0.000000e+00 0.000000e+00 0.000000e+00 0.000000e+00 0.000000e+00 0.000000e+00 0.000000e+00 1.006520e+00 1.052184e-01 1.007580e+00 0.000000e+00 0.000000e+00
1.525801e+01 1.000000e-16 1.000000e-16 5.093005e-03 0.000000e+00 -3.156147e+01 0.000000e+00 0.000000e+00 0.000000e+00 0.000000e+00 0.000000e+00 0.000000e+00 0.000000e+00 0.000000e+00 0.000000e+00 0.000000e+00 1.006354e+00 1.056800e-01 1.007419e+00 0.000000e+00 0.000000e+00
1.525903e+01 1.000000e-16 1.000000e-16 5.278241e-03 0.000000e+00 -3.159720e+01 0.000000e+00 0.000000e+00 0.000000e+00 0.000000e+00 0.000000e+00 0.000000e+00 0.000000e+00 0.000000e+00 0.000000e+00 0.000000e+00 1.006198e+00 1.048712e-01 1.007255e+00 0.000000e+00 0.000000e+00

File: rr_Scan(1)2021_10_12T09_38_54.xdi
# XDI/1.0 SED_XAFS/0.9
# Column.1: energy eV
# Column.2: Ionization Chamber (IC) number 1
# Column.3: Ionization Chamber (IC) number 2
# Column.4: Ionization Chamber (IC) number 3
# Column.5: Transmission (log(IC1 current/ IC2 current))
# Column.6: Transmission Reference (log(IC2 current/IC3 current))
# Column.7: KETEK-If
# Column.8: KETEK-FLUOR
# Column.9: KETEK-ROI_0[c/s]
# Column.10: KETEK-ROI_1[c/s]
# Column.11: KETEK-ROI_2[c/s]
# Column.12: KETEK-ROI_3[c/s]
# Column.13: KETEK-ROI_4[c/s]
# Column.14: KETEK-ROI_5[c/s]
# Column.15: KETEK-ROI_6[c/s]
# Column.16: KETEK-ROI_7[c/s]
# Column.17: KETEK-e-time[sec]
# Column.18: KETEK-DEADTIME[%]
# Column.19: KETEK-INT_TIME[sec]
# Column.20: KETEK-OCR
# Column.21: KETEK-ICR
# Base.file_name: rr
# Scan.edge_energy: 8980.0
# Mono.name: Si 111
# Mono.d_spacing: 3.13553
# Beamline.name: 13ID
# Beamline.collimation: slits
# Beamline.focusing: no
# Beamline.harmonic_rejection: rhodium-coated mirror
# Facility.name: SESAME Synchrotron
# Facility.energy: 2.50 GeV
# Facility.xray_source: SESAME Bending Magnet
# Scan.start_time: 2021-10-12T09:39:05
# Detector.IC1: 15cm  rr
# Detector.IC2: 30cm  rr
# Detector.IC3: 15cm  rr
# Sample.name: Cu
# Sample.prep: Cu metal foil
# ///
# Cu foil Room Temperature
# measured at beamline 08-BM XAFS/XRF Beamline
#----
#(1)ENERGY-RBK   (2)IC1[V]   (3)IC2[V]   (4)IC3[V]   (5)TRANS   (6)TransRef   (7)KETEK-If   (8)KETEK-FLUOR   (9)KETEK-ROI_0[c/s]   (10)KETEK-ROI_1[c/s]   (11)KETEK-ROI_2[c/s]   (12)KETEK-ROI_3[c/s]   (13)KETEK-ROI_4[c/s]   (14)KETEK-ROI_5[c/s]   (15)KETEK-ROI_6[c/s]   (16)KETEK-ROI_7[c/s]   (17)KETEK-e-time[sec]   (18)KETEK-DEADTIME[%]   (19)KETEK-INT_TIME[sec]   (20)KETEK-OCR   (21)KETEK-ICR
1.524989e+01 1.000000e-16 1.000000e-16 4.865333e-03 0.000000e+00 -3.151574e+01 0.000000e+00 0.000000e+00 0.000000e+00 0.000000e+00 0.000000e+00 0.000000e+00 0.000000e+00 0.000000e+00 0.000000e+00 0.000000e+00 9.243437e-01 4.146039e-01 9.281920e-01 0.000000e+00 0.000000e+00
1.525099e+01 1.000000e-16 1.000000e-16 5.041033e-03 0.000000e+00 -3.155122e+01 0.000000e+00 0.000000e+00 0.000000e+00 0.000000e+00 0.000000e+00 0.000000e+00 0.000000e+00 0.000000e+00 0.000000e+00 0.000000e+00 1.006591e+00 9.851691e-02 1.007583e+00 0.000000e+00 0.000000e+00
1.525201e+01 1.000000e-16 1.000000e-16 5.068450e-03 0.000000e+00 -3.155664e+01 0.000000e+00 0.000000e+00 0.000000e+00 0.000000e+00 0.000000e+00 0.000000e+00 0.000000e+00 0.000000e+00 0.000000e+00 0.000000e+00 1.006502e+00 1.150862e-01 1.007662e+00 0.000000e+00 0.000000e+00
1.525303e+01 1.000000e-16 1.000000e-16 4.978096e-03 0.000000e+00 -3.153865e+01 0.000000e+00 0.000000e+00 0.000000e+00 0.000000e+00 0.000000e+00 0.000000e+00 0.000000e+00 0.000000e+00 0.000000e+00 0.000000e+00 1.006365e+00 9.215981e-02 1.007294e+00 0.000000e+00 0.000000e+00
1.525402e+01 1.000000e-16 1.000000e-16 5.137109e-03 0.000000e+00 -3.157010e+01 0.000000e+00 0.000000e+00 0.000000e+00 0.000000e+00 0.000000e+00 0.000000e+00 0.000000e+00 0.000000e+00 0.000000e+00 0.000000e+00 1.006325e+00 1.126953e-01 1.007460e+00 0.000000e+00 0.000000e+00
1.525501e+01 1.000000e-16 1.000000e-16 4.978334e-03 0.000000e+00 -3.153870e+01 0.000000e+00 0.000000e+00 0.000000e+00 0.000000e+00 0.000000e+00 0.000000e+00 0.000000e+00 0.000000e+00 0.000000e+00 0.000000e+00 1.006215e+00 1.130884e-01 1.007354e+00 0.000000e+00 0.000000e+00
1.525603e+01 1.000000e-16 1.000000e-16 5.042464e-03 0.000000e+00 -3.155150e+01 0.000000e+00 0.000000e+00 0.000000e+00 0.000000e+00 0.000000e+00 0.000000e+00 0.000000e+00 0.000000e+00 0.000000e+00 0.000000e+00 1.006660e+00 1.003819e-01 1.007672e+00 0.000000e+00 0.000000e+00
1.525704e+01 1.000000e-16 1.000000e-16 5.142353e-03 0.000000e+00 -3.157112e+01 0.000000e+00 0.000000e+00 0.000000e+00 0.000000e+00 0.000000e+00 0.000000e+00 0.000000e+00 0.000000e+00 0.000000e+00 0.000000e+00 1.006651e+00 9.280000e-02 1.007586e+00 0.000000e+00 0.000000e+00
1.525801e+01 1.000000e-16 1.000000e-16 4.938998e-03 0.000000e+00 -3.153077e+01 0.000000e+00 0.000000e+00 0.000000e+00 0.000000e+00 0.000000e+00 0.000000e+00 0.000000e+00 0.000000e+00 0.000000e+00 0.000000e+00 1.006477e+00 9.300641e-02 1.007414e+00 0.000000e+00 0.000000e+00
1.525900e+01 1.000000e-16 1.000000e-16 4.987632e-03 0.000000e+00 -3.154057e+01 0.000000e+00 0.000000e+00 0.000000e+00 0.000000e+00 0.000000e+00 0.000000e+00 0.000000e+00 0.000000e+00 0.000000e+00 0.000000e+00 1.006537e+00 1.147651e-01 1.007693e+00 0.000000e+00 0.000000e+00

File: rr_Scan(1)2021_10_19T14_30_36.xdi
# XDI/1.0 SED_XAFS/0.9
# Column.1: energy eV
# Column.2: Ionization Chamber (IC) number 1
# Column.3: Ionization Chamber (IC) number 2
# Column.4: Ionization Chamber (IC) number 3
# Column.5: Transmission (log(IC1 current/ IC2 current))
# Column.6: Transmission Reference (log(IC2 current/IC3 current))
# Base.file_name: rr
# Element.edge: K
# Mono.name: Si 311
# Mono.d_spacing: 3.13553
# Mono.settling_time: 0.1
# Beamline.name: XAFS/XRF Beamline (08-BM)
# Beamline.collimation: slits
# Beamline.focusing: no
# Beamline.harmonic_rejection: mirror coating VCM: Si, VFM: Si
# Facility.name: SESAME Synchrotron-light
# Facility.energy: 2.50 GeV
# Facility.current: 299.244
# Facility.xray_source: SESAME Bending Magnet
# Scan.start_time: 2021-10-19T14:30:36
# Scan.end_time: 2021-10-19T14:30:41
# Scan.edge_energy: 332
# Scan.number: 1/1 -- intervals: 2, samples: 1
# Detector.IC1: 15cm  1
# Detector.IC2: 30cm  2
# Detector.IC3: 15cm  3
# Element.symbol: Cu
# Sample.stoichiometry: NONE
# Sample.prep: dflds;g
# ///
# Experiment comments and remarks: NONE
# User comments and remarks: NONE
#----
#(1)energy   (2)IC1[V]   (3)IC2[V]   (4)IC3[V]   (5)TRANS   (6)TransRef
1.524997e+01  1.000000e-16  1.000000e-16  5.139731e-03  0.000000e+00  -3.157061e+01
1.525093e+01  1.000000e-16  1.000000e-16  5.046993e-03  0.000000e+00  -3.155240e+01
1.525198e+01  1.000000e-16  1.000000e-16  5.105878e-03  0.000000e+00  -3.156400e+01
1.525300e+01  1.000000e-16  1.000000e-16  5.038173e-03  0.000000e+00  -3.155065e+01
1.525399e+01  1.000000e-16  1.000000e-16  4.922549e-03  0.000000e+00  -3.152743e+01
1.525498e+01  1.000000e-16  1.000000e-16  4.997645e-03  0.000000e+00  -3.154257e+01
1.525600e+01  1.000000e-16  1.000000e-16  5.028637e-03  0.000000e+00  -3.154876e+01
1.525699e+01  1.000000e-16  1.000000e-16  5.002174e-03  0.000000e+00  -3.154348e+01
1.525798e+01  1.000000e-16  1.000000e-16  5.152366e-03  0.000000e+00  -3.157306e+01
1.525900e+01  1.000000e-16  1.000000e-16  5.052238e-03  0.000000e+00  -3.155344e+01
1.525999e+01  1.000000e-16  1.000000e-16  5.088475e-03  0.000000e+00  -3.156058e+01
1.526098e+01  1.000000e-16  1.000000e-16  5.145214e-03  0.000000e+00  -3.157167e+01
1.526200e+01  1.000000e-16  1.000000e-16  4.931608e-03  0.000000e+00  -3.152927e+01
1.526299e+01  1.000000e-16  1.000000e-16  4.980718e-03  0.000000e+00  -3.153918e+01
1.526401e+01  1.000000e-16  1.000000e-16  5.101349e-03  0.000000e+00  -3.156311e+01
1.526503e+01  1.000000e-16  1.000000e-16  5.043895e-03  0.000000e+00  -3.155178e+01
1.526602e+01  1.000000e-16  1.000000e-16  5.011949e-03  0.000000e+00  -3.154543e+01
1.526701e+01  1.000000e-16  1.000000e-16  5.042941e-03  0.000000e+00  -3.155160e+01
1.526798e+01  1.000000e-16  1.000000e-16  5.101110e-03  0.000000e+00  -3.156306e+01
1.526900e+01  1.000000e-16  1.000000e-16  5.168101e-03  0.000000e+00  -3.157611e+01

File: rr_Scan(1)2021_10_19T14_58_09.xdi
# XDI/1.0 SED_XAFS/0.9
# Column.1: energy eV
# Column.2: I0
# Column.3: Itrans
# Column.4: Irefer
# Column.5: mutrans (log(I0/Itrans))
# Column.6: murefer (log(Itrans/Irefer))
# Base.file_name: rr
# Element.edge: K
# Mono.name: Si 311
# Mono.d_spacing: 3.13553
# Mono.settling_time: 0.1
# Beamline.name: XAFS/XRF Beamline (08-BM)
# Beamline.collimation: slits
# Beamline.focusing: no
# Beamline.harmonic_rejection: mirror coating VCM: Si, VFM: Si
# Facility.name: SESAME Synchrotron-light
# Facility.energy: 2.50 GeV
# Facility.current: 294.641
# Facility.xray_source: SESAME Bending Magnet
# Scan.start_time: 2021-10-19T14:58:09
# Scan.end_time: 2021-10-19T14:58:15
# Scan.edge_energy: 332
# Scan.number: 1/1 -- intervals: 2, samples: 1
# Detector.IC1: 15cm  1
# Detector.IC2: 30cm  2
# Detector.IC3: 15cm  3
# Element.symbol: Cu
# Sample.stoichiometry: NONE
# Sample.prep: dflds;g
# ///
# Experiment comments and remarks: NONE
# User comments and remarks: NONE
#----
#(1)energy   (2)I0   (3)Itrans   (4)Irefer   (5)mutrans   (6)murefer
1.524994e+01  1.000000e-16  1.000000e-16  5.065350e-03  0.000000e+00  -3.155603e+01
1.525096e+01  1.000000e-16  1.000000e-16  5.261554e-03  0.000000e+00  -3.159403e+01
1.525198e+01  1.000000e-16  1.000000e-16  5.101349e-03  0.000000e+00  -3.156311e+01
1.525303e+01  1.000000e-16  1.000000e-16  5.040080e-03  0.000000e+00  -3.155103e+01
1.525399e+01  1.000000e-16  1.000000e-16  4.947819e-03  0.000000e+00  -3.153255e+01
1.525501e+01  1.000000e-16  1.000000e-16  5.185981e-03  0.000000e+00  -3.157957e+01
1.525600e+01  1.000000e-16  1.000000e-16  5.185981e-03  0.000000e+00  -3.157957e+01
1.525699e+01  1.000000e-16  1.000000e-16  5.110647e-03  0.000000e+00  -3.156493e+01
1.525798e+01  1.000000e-16  1.000000e-16  5.070595e-03  0.000000e+00  -3.155706e+01
1.525897e+01  1.000000e-16  1.000000e-16  4.959739e-03  0.000000e+00  -3.153496e+01
1.526002e+01  1.000000e-16  1.000000e-16  5.052715e-03  0.000000e+00  -3.155353e+01
1.526101e+01  1.000000e-16  1.000000e-16  5.140208e-03  0.000000e+00  -3.157070e+01
1.526200e+01  1.000000e-16  1.000000e-16  4.970229e-03  0.000000e+00  -3.153707e+01
1.526299e+01  1.000000e-16  1.000000e-16  5.159518e-03  0.000000e+00  -3.157445e+01
1.526401e+01  1.000000e-16  1.000000e-16  5.064636e-03  0.000000e+00  -3.155589e+01
1.526500e+01  1.000000e-16  1.000000e-16  5.087522e-03  0.000000e+00  -3.156040e+01
1.526599e+01  1.000000e-16  1.000000e-16  4.856512e-03  0.000000e+00  -3.151393e+01
1.526704e+01  1.000000e-16  1.000000e-16  5.159757e-03  0.000000e+00  -3.157450e+01
1.526800e+01  1.000000e-16  1.000000e-16  5.024822e-03  0.000000e+00  -3.154800e+01
1.526900e+01  1.000000e-16  1.000000e-16  5.047947e-03  0.000000e+00  -3.155259e+01

File: rr_Scan(1)2021_10_19T21_50_55.xdi
# XDI/1.0 SED_XAFS/0.9
# Column.1: energy eV
# Column.2: I0
# Column.3: Itrans
# Column.4: Irefer
# Column.5: mutrans (log(I0/Itrans))
# Column.6: murefer (log(Itrans/Irefer))
# Base.file_name: rr
# Element.edge: K
# Mono.name: Si 311
# Mono.d_spacing: 3.13553
# Mono.settling_time: 0.1
# Beamline.name: XAFS/XRF Beamline (08-BM)
# Beamline.collimation: slits
# Beamline.focusing: no
# Beamline.harmonic_rejection: mirror coating VCM: Si, VFM: Si
# Facility.name: SESAME Synchrotron-light
# Facility.energy: 2.50 GeV
# Facility.current: 270.166
# Facility.xray_source: SESAME Bending Magnet
# Scan.start_time: 2021-10-19T21:50:55
# Scan.end_time: 2021-10-19T21:51:00
# Scan.edge_energy: 332
# Scan.number: 1/1 -- intervals: 2, samples: 1
# Detector.IC1: 15cm  1
# Detector.IC2: 30cm  2
# Detector.IC3: 15cm  3
# Element.symbol: Cu
# Sample.stoichiometry: NONE
# Sample.prep: dflds;g
# ///
# Experiment comments and remarks: NONE
# User comments and remarks: NONE
#----
#(1)energy   (2)I0   (3)Itrans   (4)Irefer   (5)mutrans   (6)murefer
1.524997e+01  1.000000e-16  1.000000e-16  5.044610e-03  0.000000e+00  -3.155193e+01
1.525093e+01  1.000000e-16  1.000000e-16  4.980957e-03  0.000000e+00  -3.153923e+01
1.525198e+01  1.000000e-16  1.000000e-16  5.079416e-03  0.000000e+00  -3.155880e+01
1.525300e+01  1.000000e-16  1.000000e-16  5.021246e-03  0.000000e+00  -3.154728e+01
1.525399e+01  1.000000e-16  1.000000e-16  5.007896e-03  0.000000e+00  -3.154462e+01
1.525501e+01  1.000000e-16  1.000000e-16  5.117322e-03  0.000000e+00  -3.156624e+01
1.525603e+01  1.000000e-16  1.000000e-16  5.052239e-03  0.000000e+00  -3.155344e+01
1.525699e+01  1.000000e-16  1.000000e-16  5.001220e-03  0.000000e+00  -3.154329e+01
1.525798e+01  1.000000e-16  1.000000e-16  4.946866e-03  0.000000e+00  -3.153236e+01
1.525900e+01  1.000000e-16  1.000000e-16  5.083707e-03  0.000000e+00  -3.155965e+01
1.525996e+01  1.000000e-16  1.000000e-16  5.020769e-03  0.000000e+00  -3.154719e+01
1.526098e+01  1.000000e-16  1.000000e-16  4.969752e-03  0.000000e+00  -3.153698e+01
1.526200e+01  1.000000e-16  1.000000e-16  5.042464e-03  0.000000e+00  -3.155150e+01
1.526299e+01  1.000000e-16  1.000000e-16  5.078939e-03  0.000000e+00  -3.155871e+01
1.526398e+01  1.000000e-16  1.000000e-16  4.983102e-03  0.000000e+00  -3.153966e+01
1.526500e+01  1.000000e-16  1.000000e-16  4.961169e-03  0.000000e+00  -3.153525e+01
1.526602e+01  1.000000e-16  1.000000e-16  5.161426e-03  0.000000e+00  -3.157482e+01
1.526701e+01  1.000000e-16  1.000000e-16  5.071310e-03  0.000000e+00  -3.155721e+01
1.526800e+01  1.000000e-16  1.000000e-16  5.098250e-03  0.000000e+00  -3.156250e+01
1.526905e+01  1.000000e-16  1.000000e-16  5.032928e-03  0.000000e+00  -3.154961e+01

File: Test settling time _Scan(1)2021_10_18T12_21_45.xdi
# XDI/1.0 SED_XAFS/0.9
# Column.1: energy eV
# Column.2: Ionization Chamber (IC) number 1
# Column.3: Ionization Chamber (IC) number 2
# Column.4: Ionization Chamber (IC) number 3
# Column.5: Transmission (log(IC1 current/ IC2 current))
# Column.6: Transmission Reference (log(IC2 current/IC3 current))
# Column.7: KETEK-If
# Column.8: KETEK-FLUOR
# Column.9: KETEK-ROI_0[c/s]
# Column.10: KETEK-ROI_1[c/s]
# Column.11: KETEK-ROI_2[c/s]
# Column.12: KETEK-e-time[sec]
# Column.13: KETEK-DEADTIME[%]
# Column.14: KETEK-INT_TIME[sec]
# Column.15: KETEK-OCR
# Column.16: KETEK-ICR
# Base.file_name: Test settling time
# Element.edge: K
# Mono.name: Si 111
# Mono.d_spacing: 3.13553
# Mono.settling_time: 5.0
# Beamline.name: XAFS/XRF Beamline (08-BM)
# Beamline.collimation: slits
# Beamline.focusing: no
# Beamline.harmonic_rejection: mirror coating VCM: Si, VFM: Si
# Facility.name: SESAME Synchrotron-light
# Facility.energy: 2.50 GeV
# Facility.current: 300.155
# Facility.xray_source: SESAME Bending Magnet
# Scan.start_time: 2021-10-18T12:21:45
# Scan.end_time: 2021-10-18T12:21:59
# Scan.edge_energy: 25000
# Scan.number: 1/1 -- intervals: 1, samples: 1
# Detector.IC1: 15cm  12
# Detector.IC2: 30cm  2
# Detector.IC3: 15cm  3
# Element.symbol: Cu
# Sample.stoichiometry: NONE
# Sample.prep: fsdf
# ///
# Experiment comments and remarks: NONE
# User comments and remarks: NONE
#----
#(1)energy   (2)IC1[V]   (3)IC2[V]   (4)IC3[V]   (5)TRANS   (6)TransRef   (7)KETEK-If   (8)KETEK-FLUOR   (9)KETEK-ROI_0[c/s]   (10)KETEK-ROI_1[c/s]   (11)KETEK-ROI_2[c/s]   (12)KETEK-e-time[sec]   (13)KETEK-DEADTIME[%]   (14)KETEK-INT_TIME[sec]   (15)KETEK-OCR   (16)KETEK-ICR
1.524992e+01  1.000000e-16  1.000000e-16  5.070357e-03  0.000000e+00  -3.155702e+01  0.000000e+00  0.000000e+00  0.000000e+00  0.000000e+00  0.000000e+00  4.744182e-01  4.405295e-01  4.765174e-01  0.000000e+00  0.000000e+00
1.525099e+01  1.000000e-16  1.000000e-16  5.070595e-03  0.000000e+00  -3.155706e+01  0.000000e+00  0.000000e+00  0.000000e+00  0.000000e+00  0.000000e+00  5.031501e-01  1.126346e-01  5.037174e-01  0.000000e+00  0.000000e+00
1.525204e+01  1.000000e-16  1.000000e-16  5.118990e-03  0.000000e+00  -3.156656e+01  0.000000e+00  0.000000e+00  0.000000e+00  0.000000e+00  0.000000e+00  5.030022e-01  9.647896e-02  5.034880e-01  0.000000e+00  0.000000e+00
1.525300e+01  1.000000e-16  1.000000e-16  4.998837e-03  0.000000e+00  -3.154281e+01  0.000000e+00  0.000000e+00  0.000000e+00  0.000000e+00  0.000000e+00  5.032422e-01  1.110278e-01  5.038016e-01  0.000000e+00  0.000000e+00
1.525402e+01  1.000000e-16  1.000000e-16  5.167624e-03  0.000000e+00  -3.157602e+01  0.000000e+00  0.000000e+00  0.000000e+00  0.000000e+00  0.000000e+00  5.030304e-01  1.112650e-01  5.035907e-01  0.000000e+00  0.000000e+00
1.525504e+01  1.000000e-16  1.000000e-16  5.187888e-03  0.000000e+00  -3.157993e+01  0.000000e+00  0.000000e+00  0.000000e+00  0.000000e+00  0.000000e+00  5.028979e-01  9.516526e-02  5.033770e-01  0.000000e+00  0.000000e+00
1.525600e+01  1.000000e-16  1.000000e-16  5.061536e-03  0.000000e+00  -3.155528e+01  0.000000e+00  0.000000e+00  0.000000e+00  0.000000e+00  0.000000e+00  5.030022e-01  1.118425e-01  5.035654e-01  0.000000e+00  0.000000e+00
1.525702e+01  1.000000e-16  1.000000e-16  5.022438e-03  0.000000e+00  -3.154752e+01  0.000000e+00  0.000000e+00  0.000000e+00  0.000000e+00  0.000000e+00  5.030432e-01  1.112621e-01  5.036035e-01  0.000000e+00  0.000000e+00
1.525806e+01  1.000000e-16  1.000000e-16  4.997168e-03  0.000000e+00  -3.154248e+01  0.000000e+00  0.000000e+00  0.000000e+00  0.000000e+00  0.000000e+00  5.030042e-01  1.114612e-01  5.035654e-01  0.000000e+00  0.000000e+00
1.525900e+01  1.000000e-16  1.000000e-16  4.986440e-03  0.000000e+00  -3.154033e+01  0.000000e+00  0.000000e+00  0.000000e+00  0.000000e+00  0.000000e+00  5.030938e-01  9.633446e-02  5.035789e-01  0.000000e+00  0.000000e+00