Folder: HESEBScanTool/tmp/SEM[1]/XAFS/20185101/data/csv

Note: README.md
# HESEBScanTool
This a scanning tool for collecting experimental data from Helmholtz SESAME Soft X-ray Beamline (HESEB). 

# Scanning tool feature: 

Collect data from detectors simultaneously
Runs as “unattended scanning mode”
Enable data writing in xdi files
Online / offline logging 
Automatic data transfer to data center (after each scan)
Input data validation 
More to be done: 
Finalize automatic proposal and user metadata extraction from users DB.
Store the data in HDF5 dxFile format 
Develop a tool to convert HDF5 dxFile to xdi files 
Public documentation targeting end-users (how-to)
![image](https://user-images.githubusercontent.com/10595891/176128021-fdba9ed3-97b9-449d-aafa-819c299ecc90.png)

File: ddd.xdi
# XDI/1.0 SED_XAFS/0.9
# Column.1: energy eV
# Column.2: Ionization Chamber (IC) number 1
# Column.3: Ionization Chamber (IC) number 2
# Column.4: Ionization Chamber (IC) number 3
# Column.5: Transmission (log(IC1 current/ IC2 current))
# Column.6: Transmission Reference (log(IC2 current/IC3 current))
# Column.7: KETEK-If
# Column.8: KETEK-FLUOR
# Column.9: KETEK-ROI_0[c/s]
# Column.10: KETEK-ROI_1[c/s]
# Column.11: KETEK-ROI_2[c/s]
# Column.12: KETEK-e-time[sec]
# Column.13: KETEK-DEADTIME[%]
# Column.14: KETEK-INT_TIME[sec]
# Column.15: KETEK-OCR
# Column.16: KETEK-ICR
# Base.file_name: nn
# Element.edge: K
# Mono.name: Si 111
# Mono.d_spacing: 3.13553
# Beamline.name: XAFS/XRF Beamline (08-BM)
# Beamline.collimation: slits
# Beamline.focusing: no
# Beamline.harmonic_rejection: mirror coating VCM: Si, VFM: Pt
# Facility.name: SESAME Synchrotron-light
# Facility.energy: 2.50 GeV
# Facility.current: -0.0633508
# Facility.xray_source: SESAME Bending Magnet
# Scan.start_time: 2021-10-14T13:43:01
# Scan.end_time: 2021-10-14T13:43:08
# Detector.IC1: 15cm  N2
# Detector.IC2: 30cm  N2
# Detector.IC3: 15cm  N2
# Element.symbol: Fe
# Sample.prep: Cu metal foil
# ///
# Cu foil Room Temperature
# measured at beamline 08-BM XAFS/XRF Beamline
#----
#(1)energy   (2)IC1[V]   (3)IC2[V]   (4)IC3[V]   (5)TRANS   (6)TransRef   (7)KETEK-If   (8)KETEK-FLUOR   (9)KETEK-ROI_0[c/s]   (10)KETEK-ROI_1[c/s]   (11)KETEK-ROI_2[c/s]   (12)KETEK-e-time[sec]   (13)KETEK-DEADTIME[%]   (14)KETEK-INT_TIME[sec]   (15)KETEK-OCR   (16)KETEK-ICR
1.524997e+01  1.000000e-16  1.000000e-16  5.192656e-03  0.000000e+00  -3.158085e+01  0.000000e+00  0.000000e+00  0.000000e+00  0.000000e+00  0.000000e+00  4.859466e-01  4.638648e-01  4.882112e-01  0.000000e+00  0.000000e+00
1.525096e+01  1.000000e-16  1.000000e-16  5.154512e-03  0.000000e+00  -3.157348e+01  0.000000e+00  0.000000e+00  0.000000e+00  0.000000e+00  0.000000e+00  5.030467e-01  1.468558e-01  5.037866e-01  0.000000e+00  0.000000e+00
1.525198e+01  1.000000e-16  1.000000e-16  5.123997e-03  0.000000e+00  -3.156754e+01  0.000000e+00  0.000000e+00  0.000000e+00  0.000000e+00  0.000000e+00  5.032330e-01  1.135043e-01  5.038048e-01  0.000000e+00  0.000000e+00
1.525300e+01  1.000000e-16  1.000000e-16  5.062251e-03  0.000000e+00  -3.155542e+01  0.000000e+00  0.000000e+00  0.000000e+00  0.000000e+00  0.000000e+00  5.031722e-01  1.006355e-01  5.036790e-01  0.000000e+00  0.000000e+00
1.525399e+01  1.000000e-16  1.000000e-16  5.206960e-03  0.000000e+00  -3.158360e+01  0.000000e+00  0.000000e+00  0.000000e+00  0.000000e+00  0.000000e+00  5.031082e-01  1.167688e-01  5.036963e-01  0.000000e+00  0.000000e+00
1.525498e+01  1.000000e-16  1.000000e-16  5.294929e-03  0.000000e+00  -3.160036e+01  0.000000e+00  0.000000e+00  0.000000e+00  0.000000e+00  0.000000e+00  5.032253e-01  1.019576e-01  5.037389e-01  0.000000e+00  0.000000e+00
1.525600e+01  1.000000e-16  1.000000e-16  5.294929e-03  0.000000e+00  -3.160036e+01  0.000000e+00  0.000000e+00  0.000000e+00  0.000000e+00  0.000000e+00  5.032122e-01  9.453465e-02  5.036883e-01  0.000000e+00  0.000000e+00
1.525699e+01  1.000000e-16  1.000000e-16  5.034358e-03  0.000000e+00  -3.154989e+01  0.000000e+00  0.000000e+00  0.000000e+00  0.000000e+00  0.000000e+00  5.028470e-01  1.147342e-01  5.034246e-01  0.000000e+00  0.000000e+00
1.525801e+01  1.000000e-16  1.000000e-16  5.173107e-03  0.000000e+00  -3.157708e+01  0.000000e+00  0.000000e+00  0.000000e+00  0.000000e+00  0.000000e+00  5.031808e-01  1.158002e-01  5.037642e-01  0.000000e+00  0.000000e+00
1.525900e+01  1.000000e-16  1.000000e-16  5.243673e-03  0.000000e+00  -3.159063e+01  0.000000e+00  0.000000e+00  0.000000e+00  0.000000e+00  0.000000e+00  5.030912e-01  9.836641e-02  5.035866e-01  0.000000e+00  0.000000e+00

File: dsd_Scan(1)2021_10_12T21_09_21.xdi
# XDI/1.0 SED_XAFS/0.9
# Column.1: energy eV
# Column.2: Ionization Chamber (IC) number 1
# Column.3: Ionization Chamber (IC) number 2
# Column.4: Ionization Chamber (IC) number 3
# Column.5: Transmission (log(IC1 current/ IC2 current))
# Column.6: Transmission Reference (log(IC2 current/IC3 current))
# Column.7: KETEK-If
# Column.8: KETEK-FLUOR
# Column.9: KETEK-ROI_0[c/s]
# Column.10: KETEK-ROI_1[c/s]
# Column.11: KETEK-ROI_2[c/s]
# Column.12: KETEK-ROI_3[c/s]
# Column.13: KETEK-ROI_4[c/s]
# Column.14: KETEK-ROI_5[c/s]
# Column.15: KETEK-ROI_6[c/s]
# Column.16: KETEK-ROI_7[c/s]
# Column.17: KETEK-e-time[sec]
# Column.18: KETEK-DEADTIME[%]
# Column.19: KETEK-INT_TIME[sec]
# Column.20: KETEK-OCR
# Column.21: KETEK-ICR
# Base.file_name: dsd
# Scan.edge_energy: 8980.0
# Mono.name: Si 111
# Mono.d_spacing: 3.13553
# Beamline.name: 13ID
# Beamline.collimation: slits
# Beamline.focusing: no
# Beamline.harmonic_rejection: rhodium-coated mirror
# Facility.name: SESAME Synchrotron
# Facility.energy: 2.50 GeV
# Facility.xray_source: SESAME Bending Magnet
# Scan.start_time: 2021-10-12T21:09:39
# Detector.IC1: 15cm  df
# Detector.IC2: 30cm  df
# Detector.IC3: 15cm  df
# Sample.name: Cu
# Sample.prep: Cu metal foil
# ///
# Cu foil Room Temperature
# measured at beamline 08-BM XAFS/XRF Beamline
#----
#(1)ENERGY-RBK   (2)IC1[V]   (3)IC2[V]   (4)IC3[V]   (5)TRANS   (6)TransRef   (7)KETEK-If   (8)KETEK-FLUOR   (9)KETEK-ROI_0[c/s]   (10)KETEK-ROI_1[c/s]   (11)KETEK-ROI_2[c/s]   (12)KETEK-ROI_3[c/s]   (13)KETEK-ROI_4[c/s]   (14)KETEK-ROI_5[c/s]   (15)KETEK-ROI_6[c/s]   (16)KETEK-ROI_7[c/s]   (17)KETEK-e-time[sec]   (18)KETEK-DEADTIME[%]   (19)KETEK-INT_TIME[sec]   (20)KETEK-OCR   (21)KETEK-ICR
1.524994e+01 1.000000e-16 1.000000e-16 5.142592e-03 0.000000e+00 -3.157116e+01 0.000000e+00 0.000000e+00 0.000000e+00 0.000000e+00 0.000000e+00 0.000000e+00 0.000000e+00 0.000000e+00 0.000000e+00 0.000000e+00 9.968995e-01 4.224671e-01 1.001129e+00 0.000000e+00 0.000000e+00
1.525096e+01 1.000000e-16 1.000000e-16 5.155466e-03 0.000000e+00 -3.157366e+01 0.000000e+00 0.000000e+00 0.000000e+00 0.000000e+00 0.000000e+00 0.000000e+00 0.000000e+00 0.000000e+00 0.000000e+00 0.000000e+00 1.006494e+00 1.027464e-01 1.007529e+00 0.000000e+00 0.000000e+00
1.525198e+01 1.000000e-16 1.000000e-16 5.127572e-03 0.000000e+00 -3.156824e+01 0.000000e+00 0.000000e+00 0.000000e+00 0.000000e+00 0.000000e+00 0.000000e+00 0.000000e+00 0.000000e+00 0.000000e+00 0.000000e+00 1.006400e+00 1.019310e-01 1.007427e+00 0.000000e+00 0.000000e+00
1.525303e+01 1.000000e-16 1.000000e-16 5.176206e-03 0.000000e+00 -3.157768e+01 0.000000e+00 0.000000e+00 0.000000e+00 0.000000e+00 0.000000e+00 0.000000e+00 0.000000e+00 0.000000e+00 0.000000e+00 0.000000e+00 1.006099e+00 1.275700e-01 1.007384e+00 0.000000e+00 0.000000e+00
1.525399e+01 1.000000e-16 1.000000e-16 5.191941e-03 0.000000e+00 -3.158071e+01 0.000000e+00 0.000000e+00 0.000000e+00 0.000000e+00 0.000000e+00 0.000000e+00 0.000000e+00 0.000000e+00 0.000000e+00 0.000000e+00 1.006487e+00 9.706736e-02 1.007465e+00 0.000000e+00 0.000000e+00
1.525501e+01 1.000000e-16 1.000000e-16 5.187888e-03 0.000000e+00 -3.157993e+01 0.000000e+00 0.000000e+00 0.000000e+00 0.000000e+00 0.000000e+00 0.000000e+00 0.000000e+00 0.000000e+00 0.000000e+00 0.000000e+00 1.006405e+00 1.188088e-01 1.007602e+00 0.000000e+00 0.000000e+00
1.525603e+01 1.000000e-16 1.000000e-16 5.086330e-03 0.000000e+00 -3.156016e+01 0.000000e+00 0.000000e+00 0.000000e+00 0.000000e+00 0.000000e+00 0.000000e+00 0.000000e+00 0.000000e+00 0.000000e+00 0.000000e+00 1.006435e+00 1.187736e-01 1.007632e+00 0.000000e+00 0.000000e+00
1.525699e+01 1.000000e-16 1.000000e-16 5.311618e-03 0.000000e+00 -3.160350e+01 0.000000e+00 0.000000e+00 0.000000e+00 0.000000e+00 0.000000e+00 0.000000e+00 0.000000e+00 0.000000e+00 0.000000e+00 0.000000e+00 1.006468e+00 1.207997e-01 1.007685e+00 0.000000e+00 0.000000e+00
1.525803e+01 1.000000e-16 1.000000e-16 5.164763e-03 0.000000e+00 -3.157547e+01 0.000000e+00 0.000000e+00 0.000000e+00 0.000000e+00 0.000000e+00 0.000000e+00 0.000000e+00 0.000000e+00 0.000000e+00 0.000000e+00 1.006251e+00 1.186684e-01 1.007446e+00 0.000000e+00 0.000000e+00
1.525903e+01 1.000000e-16 1.000000e-16 5.309710e-03 0.000000e+00 -3.160314e+01 0.000000e+00 0.000000e+00 0.000000e+00 0.000000e+00 0.000000e+00 0.000000e+00 0.000000e+00 0.000000e+00 0.000000e+00 0.000000e+00 1.006440e+00 1.171552e-01 1.007621e+00 0.000000e+00 0.000000e+00

File: Malik_Scan(1)2021_10_13T12_28_47.xdi
# XDI/1.0 SED_XAFS/0.9
# Column.1: energy eV
# Column.2: Ionization Chamber (IC) number 1
# Column.3: Ionization Chamber (IC) number 2
# Column.4: Ionization Chamber (IC) number 3
# Column.5: Transmission (log(IC1 current/ IC2 current))
# Column.6: Transmission Reference (log(IC2 current/IC3 current))
# Column.7: KETEK-If
# Column.8: KETEK-FLUOR
# Column.9: KETEK-ROI_0[c/s]
# Column.10: KETEK-ROI_1[c/s]
# Column.11: KETEK-ROI_2[c/s]
# Column.12: KETEK-ROI_3[c/s]
# Column.13: KETEK-ROI_4[c/s]
# Column.14: KETEK-ROI_5[c/s]
# Column.15: KETEK-ROI_6[c/s]
# Column.16: KETEK-ROI_7[c/s]
# Column.17: KETEK-e-time[sec]
# Column.18: KETEK-DEADTIME[%]
# Column.19: KETEK-INT_TIME[sec]
# Column.20: KETEK-OCR
# Column.21: KETEK-ICR
# Base.file_name: Malik
# Scan.edge_energy: 8980.0
# Mono.name: Si 111
# Mono.d_spacing: 3.13553
# Beamline.name: 13ID
# Beamline.collimation: slits
# Beamline.focusing: no
# Beamline.harmonic_rejection: rhodium-coated mirror
# Facility.name: SESAME Synchrotron
# Facility.energy: 2.50 GeV
# Facility.xray_source: SESAME Bending Magnet
# Scan.start_time: 2021-10-13T12:29:23
# Detector.IC1: 15cm  N2
# Detector.IC2: 30cm  N2
# Detector.IC3: 15cm  N2
# Sample.name: Cu
# Sample.prep: Cu metal foil
# ///
# Cu foil Room Temperature
# measured at beamline 08-BM XAFS/XRF Beamline
#----
#(1)ENERGY-RBK   (2)IC1[V]   (3)IC2[V]   (4)IC3[V]   (5)TRANS   (6)TransRef   (7)KETEK-If   (8)KETEK-FLUOR   (9)KETEK-ROI_0[c/s]   (10)KETEK-ROI_1[c/s]   (11)KETEK-ROI_2[c/s]   (12)KETEK-ROI_3[c/s]   (13)KETEK-ROI_4[c/s]   (14)KETEK-ROI_5[c/s]   (15)KETEK-ROI_6[c/s]   (16)KETEK-ROI_7[c/s]   (17)KETEK-e-time[sec]   (18)KETEK-DEADTIME[%]   (19)KETEK-INT_TIME[sec]   (20)KETEK-OCR   (21)KETEK-ICR
1.524977e+01 1.000000e-16 1.000000e-16 5.107547e-03 0.000000e+00 -3.156433e+01 0.000000e+00 0.000000e+00 0.000000e+00 0.000000e+00 0.000000e+00 0.000000e+00 0.000000e+00 0.000000e+00 0.000000e+00 0.000000e+00 9.362957e-01 4.227887e-01 9.402710e-01 0.000000e+00 0.000000e+00
1.525099e+01 1.000000e-16 1.000000e-16 5.083230e-03 0.000000e+00 -3.155955e+01 0.000000e+00 0.000000e+00 0.000000e+00 0.000000e+00 0.000000e+00 0.000000e+00 0.000000e+00 0.000000e+00 0.000000e+00 0.000000e+00 1.006681e+00 1.142095e-01 1.007832e+00 0.000000e+00 0.000000e+00
1.525201e+01 1.000000e-16 1.000000e-16 5.144737e-03 0.000000e+00 -3.157158e+01 0.000000e+00 0.000000e+00 0.000000e+00 0.000000e+00 0.000000e+00 0.000000e+00 0.000000e+00 0.000000e+00 0.000000e+00 0.000000e+00 1.006346e+00 1.000959e-01 1.007354e+00 0.000000e+00 0.000000e+00
1.525300e+01 1.000000e-16 1.000000e-16 5.080370e-03 0.000000e+00 -3.155899e+01 0.000000e+00 0.000000e+00 0.000000e+00 0.000000e+00 0.000000e+00 0.000000e+00 0.000000e+00 0.000000e+00 0.000000e+00 0.000000e+00 1.006274e+00 9.372354e-02 1.007218e+00 0.000000e+00 0.000000e+00
1.525402e+01 1.000000e-16 1.000000e-16 5.036742e-03 0.000000e+00 -3.155037e+01 0.000000e+00 0.000000e+00 0.000000e+00 0.000000e+00 0.000000e+00 0.000000e+00 0.000000e+00 0.000000e+00 0.000000e+00 0.000000e+00 1.006336e+00 1.161839e-01 1.007506e+00 0.000000e+00 0.000000e+00
1.525501e+01 1.000000e-16 1.000000e-16 5.298267e-03 0.000000e+00 -3.160099e+01 0.000000e+00 0.000000e+00 0.000000e+00 0.000000e+00 0.000000e+00 0.000000e+00 0.000000e+00 0.000000e+00 0.000000e+00 0.000000e+00 1.006615e+00 1.188475e-01 1.007813e+00 0.000000e+00 0.000000e+00
1.525600e+01 1.000000e-16 1.000000e-16 5.123281e-03 0.000000e+00 -3.156740e+01 0.000000e+00 0.000000e+00 0.000000e+00 0.000000e+00 0.000000e+00 0.000000e+00 0.000000e+00 0.000000e+00 0.000000e+00 0.000000e+00 1.006431e+00 1.155068e-01 1.007595e+00 0.000000e+00 0.000000e+00
1.525699e+01 1.000000e-16 1.000000e-16 5.081800e-03 0.000000e+00 -3.155927e+01 0.000000e+00 0.000000e+00 0.000000e+00 0.000000e+00 0.000000e+00 0.000000e+00 0.000000e+00 0.000000e+00 0.000000e+00 0.000000e+00 1.006612e+00 1.030833e-01 1.007651e+00 0.000000e+00 0.000000e+00
1.525803e+01 1.000000e-16 1.000000e-16 5.193609e-03 0.000000e+00 -3.158104e+01 0.000000e+00 0.000000e+00 0.000000e+00 0.000000e+00 0.000000e+00 0.000000e+00 0.000000e+00 0.000000e+00 0.000000e+00 0.000000e+00 1.006535e+00 1.148605e-01 1.007692e+00 0.000000e+00 0.000000e+00
1.525903e+01 1.000000e-16 1.000000e-16 5.140685e-03 0.000000e+00 -3.157079e+01 0.000000e+00 0.000000e+00 0.000000e+00 0.000000e+00 0.000000e+00 0.000000e+00 0.000000e+00 0.000000e+00 0.000000e+00 0.000000e+00 1.006235e+00 1.001386e-01 1.007244e+00 0.000000e+00 0.000000e+00

File: nn_Scan(1)2021-10-14T12:55:53.xdi
# XDI/1.0 SED_XAFS/0.9
# Column.1: energy eV
# Column.2: Ionization Chamber (IC) number 1
# Column.3: Ionization Chamber (IC) number 2
# Column.4: Ionization Chamber (IC) number 3
# Column.5: Transmission (log(IC1 current/ IC2 current))
# Column.6: Transmission Reference (log(IC2 current/IC3 current))
# Column.7: KETEK-If
# Column.8: KETEK-FLUOR
# Column.9: KETEK-ROI_0[c/s]
# Column.10: KETEK-ROI_1[c/s]
# Column.11: KETEK-ROI_2[c/s]
# Column.12: KETEK-e-time[sec]
# Column.13: KETEK-DEADTIME[%]
# Column.14: KETEK-INT_TIME[sec]
# Column.15: KETEK-OCR
# Column.16: KETEK-ICR
# Base.file_name: nn
# Element.edge: K
# Mono.name: Si 111
# Mono.d_spacing: 3.13553
# Beamline.name: XAFS/XRF Beamline (08-BM)
# Beamline.collimation: slits
# Beamline.focusing: no
# Beamline.harmonic_rejection: mirror coating VCM: Si, VFM: Pt
# Facility.name: SESAME Synchrotron-light
# Facility.energy: 2.50 GeV
# Facility.current: -0.0602869
# Facility.xray_source: SESAME Bending Magnet
# Scan.start_time: 2021-10-14T12:55:53
# Scan.end_time: 2021-10-14T12:55:59
# Detector.IC1: 15cm  N2
# Detector.IC2: 30cm  N2
# Detector.IC3: 15cm  N2
# Element.symbol: Fe
# Sample.prep: Cu metal foil
# ///
# Cu foil Room Temperature
# measured at beamline 08-BM XAFS/XRF Beamline
#----
#(1)energy   (2)IC1[V]   (3)IC2[V]   (4)IC3[V]   (5)TRANS   (6)TransRef   (7)KETEK-If   (8)KETEK-FLUOR   (9)KETEK-ROI_0[c/s]   (10)KETEK-ROI_1[c/s]   (11)KETEK-ROI_2[c/s]   (12)KETEK-e-time[sec]   (13)KETEK-DEADTIME[%]   (14)KETEK-INT_TIME[sec]   (15)KETEK-OCR   (16)KETEK-ICR
1.524997e+01  1.000000e-16  1.000000e-16  5.115891e-03  0.000000e+00  -3.156596e+01  0.000000e+00  0.000000e+00  0.000000e+00  0.000000e+00  0.000000e+00  4.261453e-01  4.686190e-01  4.281517e-01  0.000000e+00  0.000000e+00
1.525091e+01  1.000000e-16  1.000000e-16  5.251541e-03  0.000000e+00  -3.159213e+01  0.000000e+00  0.000000e+00  0.000000e+00  0.000000e+00  0.000000e+00  5.026614e-01  1.671489e-01  5.035030e-01  0.000000e+00  0.000000e+00
1.525201e+01  1.000000e-16  1.000000e-16  5.108739e-03  0.000000e+00  -3.156456e+01  0.000000e+00  0.000000e+00  0.000000e+00  0.000000e+00  0.000000e+00  5.031786e-01  1.132627e-01  5.037491e-01  0.000000e+00  0.000000e+00
1.525300e+01  1.000000e-16  1.000000e-16  5.023869e-03  0.000000e+00  -3.154781e+01  0.000000e+00  0.000000e+00  0.000000e+00  0.000000e+00  0.000000e+00  5.031203e-01  1.145450e-01  5.036973e-01  0.000000e+00  0.000000e+00
1.525402e+01  1.000000e-16  1.000000e-16  5.147360e-03  0.000000e+00  -3.157209e+01  0.000000e+00  0.000000e+00  0.000000e+00  0.000000e+00  0.000000e+00  5.029866e-01  1.132424e-01  5.035568e-01  0.000000e+00  0.000000e+00
1.525501e+01  1.000000e-16  1.000000e-16  5.151651e-03  0.000000e+00  -3.157292e+01  0.000000e+00  0.000000e+00  0.000000e+00  0.000000e+00  0.000000e+00  5.029853e-01  9.749816e-02  5.034762e-01  0.000000e+00  0.000000e+00
1.525600e+01  1.000000e-16  1.000000e-16  5.202669e-03  0.000000e+00  -3.158278e+01  0.000000e+00  0.000000e+00  0.000000e+00  0.000000e+00  0.000000e+00  5.029955e-01  1.002899e-01  5.035005e-01  0.000000e+00  0.000000e+00
1.525702e+01  1.000000e-16  1.000000e-16  5.175968e-03  0.000000e+00  -3.157763e+01  0.000000e+00  0.000000e+00  0.000000e+00  0.000000e+00  0.000000e+00  5.030374e-01  9.882133e-02  5.035350e-01  0.000000e+00  0.000000e+00
1.525801e+01  1.000000e-16  1.000000e-16  5.096104e-03  0.000000e+00  -3.156208e+01  0.000000e+00  0.000000e+00  0.000000e+00  0.000000e+00  0.000000e+00  5.028086e-01  1.146159e-01  5.033856e-01  0.000000e+00  0.000000e+00
1.525900e+01  1.000000e-16  1.000000e-16  5.075363e-03  0.000000e+00  -3.155800e+01  0.000000e+00  0.000000e+00  0.000000e+00  0.000000e+00  0.000000e+00  5.028480e-01  1.137816e-01  5.034208e-01  0.000000e+00  0.000000e+00

File: nn_Scan(1)2021-10-14T13:41:48.xdi
# XDI/1.0 SED_XAFS/0.9
# Column.1: energy eV
# Column.2: Ionization Chamber (IC) number 1
# Column.3: Ionization Chamber (IC) number 2
# Column.4: Ionization Chamber (IC) number 3
# Column.5: Transmission (log(IC1 current/ IC2 current))
# Column.6: Transmission Reference (log(IC2 current/IC3 current))
# Column.7: KETEK-If
# Column.8: KETEK-FLUOR
# Column.9: KETEK-ROI_0[c/s]
# Column.10: KETEK-ROI_1[c/s]
# Column.11: KETEK-ROI_2[c/s]
# Column.12: KETEK-e-time[sec]
# Column.13: KETEK-DEADTIME[%]
# Column.14: KETEK-INT_TIME[sec]
# Column.15: KETEK-OCR
# Column.16: KETEK-ICR
# Base.file_name: nn
# Element.edge: K
# Mono.name: Si 111
# Mono.d_spacing: 3.13553
# Beamline.name: XAFS/XRF Beamline (08-BM)
# Beamline.collimation: slits
# Beamline.focusing: no
# Beamline.harmonic_rejection: mirror coating VCM: Si, VFM: Pt
# Facility.name: SESAME Synchrotron-light
# Facility.energy: 2.50 GeV
# Facility.current: -0.0636525
# Facility.xray_source: SESAME Bending Magnet
# Scan.start_time: 2021-10-14T13:41:48
# Scan.end_time: 2021-10-14T13:41:54
# Detector.IC1: 15cm  N2
# Detector.IC2: 30cm  N2
# Detector.IC3: 15cm  N2
# Element.symbol: Fe
# Sample.prep: Cu metal foil
# ///
# Cu foil Room Temperature
# measured at beamline 08-BM XAFS/XRF Beamline
#----
#(1)energy   (2)IC1[V]   (3)IC2[V]   (4)IC3[V]   (5)TRANS   (6)TransRef   (7)KETEK-If   (8)KETEK-FLUOR   (9)KETEK-ROI_0[c/s]   (10)KETEK-ROI_1[c/s]   (11)KETEK-ROI_2[c/s]   (12)KETEK-e-time[sec]   (13)KETEK-DEADTIME[%]   (14)KETEK-INT_TIME[sec]   (15)KETEK-OCR   (16)KETEK-ICR
1.524997e+01  1.000000e-16  1.000000e-16  5.114223e-03  0.000000e+00  -3.156563e+01  0.000000e+00  0.000000e+00  0.000000e+00  0.000000e+00  0.000000e+00  4.761245e-01  4.601386e-01  4.783254e-01  0.000000e+00  0.000000e+00
1.525096e+01  1.000000e-16  1.000000e-16  5.159042e-03  0.000000e+00  -3.157436e+01  0.000000e+00  0.000000e+00  0.000000e+00  0.000000e+00  0.000000e+00  5.027734e-01  1.523294e-01  5.035405e-01  0.000000e+00  0.000000e+00
1.525204e+01  1.000000e-16  1.000000e-16  4.941621e-03  0.000000e+00  -3.153130e+01  0.000000e+00  0.000000e+00  0.000000e+00  0.000000e+00  0.000000e+00  5.030438e-01  9.805822e-02  5.035376e-01  0.000000e+00  0.000000e+00
1.525300e+01  1.000000e-16  1.000000e-16  5.106355e-03  0.000000e+00  -3.156409e+01  0.000000e+00  0.000000e+00  0.000000e+00  0.000000e+00  0.000000e+00  5.030557e-01  1.137981e-01  5.036288e-01  0.000000e+00  0.000000e+00
1.525399e+01  1.000000e-16  1.000000e-16  5.188365e-03  0.000000e+00  -3.158002e+01  0.000000e+00  0.000000e+00  0.000000e+00  0.000000e+00  0.000000e+00  5.028739e-01  1.133313e-01  5.034445e-01  0.000000e+00  0.000000e+00
1.525501e+01  1.000000e-16  1.000000e-16  4.962838e-03  0.000000e+00  -3.153558e+01  0.000000e+00  0.000000e+00  0.000000e+00  0.000000e+00  0.000000e+00  5.028070e-01  9.562710e-02  5.032883e-01  0.000000e+00  0.000000e+00
1.525603e+01  1.000000e-16  1.000000e-16  5.106594e-03  0.000000e+00  -3.156414e+01  0.000000e+00  0.000000e+00  0.000000e+00  0.000000e+00  0.000000e+00  5.030538e-01  1.134177e-01  5.036250e-01  0.000000e+00  0.000000e+00
1.525699e+01  1.000000e-16  1.000000e-16  5.193371e-03  0.000000e+00  -3.158099e+01  0.000000e+00  0.000000e+00  0.000000e+00  0.000000e+00  0.000000e+00  5.030605e-01  1.158913e-01  5.036442e-01  0.000000e+00  0.000000e+00
1.525801e+01  1.000000e-16  1.000000e-16  4.964030e-03  0.000000e+00  -3.153582e+01  0.000000e+00  0.000000e+00  0.000000e+00  0.000000e+00  0.000000e+00  5.030883e-01  1.148696e-01  5.036669e-01  0.000000e+00  0.000000e+00
1.525900e+01  1.000000e-16  1.000000e-16  5.175253e-03  0.000000e+00  -3.157749e+01  0.000000e+00  0.000000e+00  0.000000e+00  0.000000e+00  0.000000e+00  5.031827e-01  9.593661e-02  5.036659e-01  0.000000e+00  0.000000e+00

File: nn_Scan(1)2021_10_14T11_02_35.xdi
# XDI/1.0 SED_XAFS/0.9
# Column.1: energy eV
# Column.2: Ionization Chamber (IC) number 1
# Column.3: Ionization Chamber (IC) number 2
# Column.4: Ionization Chamber (IC) number 3
# Column.5: Transmission (log(IC1 current/ IC2 current))
# Column.6: Transmission Reference (log(IC2 current/IC3 current))
# Column.7: KETEK-If
# Column.8: KETEK-FLUOR
# Column.9: KETEK-ROI_0[c/s]
# Column.10: KETEK-ROI_1[c/s]
# Column.11: KETEK-ROI_2[c/s]
# Column.12: KETEK-e-time[sec]
# Column.13: KETEK-DEADTIME[%]
# Column.14: KETEK-INT_TIME[sec]
# Column.15: KETEK-OCR
# Column.16: KETEK-ICR
# Base.file_name: nn
# Element.edge: K
# Mono.name: Si 111
# Mono.d_spacing: 3.13553
# Beamline.name: XAFS/XRF Beamline (08-BM)
# Beamline.collimation: slits
# Beamline.focusing: no
# Beamline.harmonic_rejection: rhodium-coated mirror
# Facility.name: SESAME Synchrotron-light
# Facility.energy: 2.50 GeV
# Facility.current: <PV 'SRC01-DI-DCCT1:getDcctCurrent', count=1, type=time_double, access=read-only>
# Facility.xray_source: SESAME Bending Magnet
# Scan.start_time: 2021-10-14T11:02:40
# Detector.IC1: 15cm  N2
# Detector.IC2: 30cm  N2
# Detector.IC3: 15cm  N2
# Element.symbol: Fe
# Sample.prep: Cu metal foil
# ///
# Cu foil Room Temperature
# measured at beamline 08-BM XAFS/XRF Beamline
#----
#(1)energy   (2)IC1[V]   (3)IC2[V]   (4)IC3[V]   (5)TRANS   (6)TransRef   (7)KETEK-If   (8)KETEK-FLUOR   (9)KETEK-ROI_0[c/s]   (10)KETEK-ROI_1[c/s]   (11)KETEK-ROI_2[c/s]   (12)KETEK-e-time[sec]   (13)KETEK-DEADTIME[%]   (14)KETEK-INT_TIME[sec]   (15)KETEK-OCR   (16)KETEK-ICR
1.524989e+01  1.000000e-16  1.000000e-16  5.042702e-03  0.000000e+00  -3.155155e+01  0.000000e+00  0.000000e+00  0.000000e+00  0.000000e+00  0.000000e+00  4.756320e-01  4.552797e-01  4.778074e-01  0.000000e+00  4.204932e+00
1.525096e+01  1.000000e-16  1.000000e-16  4.994784e-03  0.000000e+00  -3.154200e+01  0.000000e+00  0.000000e+00  0.000000e+00  0.000000e+00  0.000000e+00  5.027418e-01  1.655363e-01  5.035754e-01  0.000000e+00  0.000000e+00
1.525201e+01  1.000000e-16  1.000000e-16  5.077747e-03  0.000000e+00  -3.155847e+01  0.000000e+00  0.000000e+00  0.000000e+00  0.000000e+00  0.000000e+00  5.029680e-01  1.117866e-01  5.035309e-01  0.000000e+00  0.000000e+00
1.525300e+01  1.000000e-16  1.000000e-16  5.032212e-03  0.000000e+00  -3.154947e+01  0.000000e+00  0.000000e+00  0.000000e+00  0.000000e+00  0.000000e+00  5.030330e-01  1.127242e-01  5.036006e-01  0.000000e+00  0.000000e+00
1.525402e+01  1.000000e-16  1.000000e-16  5.036266e-03  0.000000e+00  -3.155027e+01  0.000000e+00  0.000000e+00  0.000000e+00  0.000000e+00  0.000000e+00  5.032403e-01  1.112820e-01  5.038010e-01  0.000000e+00  0.000000e+00
1.525501e+01  1.000000e-16  1.000000e-16  5.090382e-03  0.000000e+00  -3.156096e+01  0.000000e+00  0.000000e+00  0.000000e+00  0.000000e+00  0.000000e+00  5.030234e-01  9.120475e-02  5.034826e-01  0.000000e+00  0.000000e+00
1.525600e+01  1.000000e-16  1.000000e-16  4.951157e-03  0.000000e+00  -3.153323e+01  0.000000e+00  0.000000e+00  0.000000e+00  0.000000e+00  0.000000e+00  5.030157e-01  9.704783e-02  5.035043e-01  0.000000e+00  0.000000e+00
1.525699e+01  1.000000e-16  1.000000e-16  4.963554e-03  0.000000e+00  -3.153573e+01  0.000000e+00  0.000000e+00  0.000000e+00  0.000000e+00  0.000000e+00  5.028534e-01  1.164469e-01  5.034397e-01  0.000000e+00  0.000000e+00
1.525803e+01  1.000000e-16  1.000000e-16  5.147360e-03  0.000000e+00  -3.157209e+01  0.000000e+00  0.000000e+00  0.000000e+00  0.000000e+00  0.000000e+00  5.031149e-01  1.129597e-01  5.036838e-01  0.000000e+00  0.000000e+00
1.525903e+01  1.000000e-16  1.000000e-16  5.175252e-03  0.000000e+00  -3.157749e+01  0.000000e+00  0.000000e+00  0.000000e+00  0.000000e+00  0.000000e+00  5.031386e-01  9.670676e-02  5.036256e-01  0.000000e+00  0.000000e+00