Folder: HESEBScanTool/DATA/Test-20220320T124715

Note: README.md
# HESEBScanTool
This a scanning tool for collecting experimental data from Helmholtz SESAME Soft X-ray Beamline (HESEB). 

# Scanning tool feature: 

Collect data from detectors simultaneously
Runs as “unattended scanning mode”
Enable data writing in xdi files
Online / offline logging 
Automatic data transfer to data center (after each scan)
Input data validation 
More to be done: 
Finalize automatic proposal and user metadata extraction from users DB.
Store the data in HDF5 dxFile format 
Develop a tool to convert HDF5 dxFile to xdi files 
Public documentation targeting end-users (how-to)
![image](https://user-images.githubusercontent.com/10595891/176128021-fdba9ed3-97b9-449d-aafa-819c299ecc90.png)

File: Test_test_Scan1_20220320T124715.xdi
# XDI/1.0 SED_XAFS/0.9
# Column.1: energy eV
# Column.2: I0
# Column.3: Itrans
# Column.4: Irefer
# Column.5: mutrans (log(I0/Itrans))
# Column.6: murefer (log(Itrans/Irefer))
# Experiment.Type: Local
# Base.file_name: Test
# Element.edge: K
# Mono.name: Si 111
# Mono.d_spacing: 3.1356
# Mono.settling_time: 0.0
# Beamline.name: XAFS/XRF Beamline (08-BM)
# Beamline.collimation: slits
# Beamline.focusing: no
# Beamline.harmonic_rejection: mirror coating VCM: Si, VFM: Si
# Facility.name: SESAME Synchrotron-light
# Facility.energy: 2.50 GeV
# Facility.current: 0.0
# Facility.xray_source: SESAME Bending Magnet
# Scan.start_time: 2022-03-20T12:47:15
# Scan.end_time: 2022-03-20T12:47:48
# Scan.edge_energy: 22
# Scan.number: 1/2 -- intervals: 2, samples: 1
# Detector.IC1: 15cm  v
# Detector.IC2: 30cm  v
# Detector.IC3: 15cm  v
# Element.symbol: Cu
# Sample.stoichiometry: NONE
# Sample.prep: mbnm
# ///
# Experiment comments and remarks: NONE
# User comments and remarks: NONE
#----
#(1)energy   (2)I0   (3)Itrans   (4)Irefer   (5)mutrans   (6)murefer
6.501669e+02  1.200000e+01  2.400000e+01  2.400000e+01  -6.931472e-01  0.000000e+00
6.539454e+02  1.200000e+01  2.400000e+01  2.400000e+01  -6.931472e-01  0.000000e+00
6.600102e+02  1.200000e+01  2.400000e+01  2.400000e+01  -6.931472e-01  0.000000e+00
6.620307e+02  1.200000e+01  2.400000e+01  2.400000e+01  -6.931472e-01  0.000000e+00
6.658546e+02  1.200000e+01  2.400000e+01  2.400000e+01  -6.931472e-01  0.000000e+00
6.697744e+02  1.200000e+01  2.400000e+01  2.400000e+01  -6.931472e-01  0.000000e+00
6.739799e+02  1.200000e+01  2.400000e+01  2.400000e+01  -6.931472e-01  0.000000e+00
6.781631e+02  1.200000e+01  2.400000e+01  2.400000e+01  -6.931472e-01  0.000000e+00
6.819402e+02  1.200000e+01  2.400000e+01  2.400000e+01  -6.931472e-01  0.000000e+00
6.880862e+02  1.200000e+01  2.400000e+01  2.400000e+01  -6.931472e-01  0.000000e+00
6.898514e+02  1.200000e+01  2.400000e+01  2.400000e+01  -6.931472e-01  0.000000e+00
6.937945e+02  1.200000e+01  2.400000e+01  2.400000e+01  -6.931472e-01  0.000000e+00
6.980362e+02  1.200000e+01  2.400000e+01  2.400000e+01  -6.931472e-01  0.000000e+00
7.040059e+02  1.200000e+01  2.400000e+01  2.400000e+01  -6.931472e-01  0.000000e+00
7.059682e+02  1.200000e+01  2.400000e+01  2.400000e+01  -6.931472e-01  0.000000e+00
7.098512e+02  1.200000e+01  2.400000e+01  2.400000e+01  -6.931472e-01  0.000000e+00
7.138353e+02  1.200000e+01  2.400000e+01  2.400000e+01  -6.931472e-01  0.000000e+00
7.179224e+02  1.200000e+01  2.400000e+01  2.400000e+01  -6.931472e-01  0.000000e+00
7.219766e+02  1.200000e+01  2.400000e+01  2.400000e+01  -6.931472e-01  0.000000e+00
7.259259e+02  1.200000e+01  2.400000e+01  2.400000e+01  -6.931472e-01  0.000000e+00
7.299789e+02  1.200000e+01  2.400000e+01  2.400000e+01  -6.931472e-01  0.000000e+00
7.323302e+02  1.200000e+01  2.400000e+01  2.400000e+01  -6.931472e-01  0.000000e+00
7.362196e+02  1.200000e+01  2.400000e+01  2.400000e+01  -6.931472e-01  0.000000e+00
7.379293e+02  1.200000e+01  2.400000e+01  2.400000e+01  -6.931472e-01  0.000000e+00
7.459602e+02  1.200000e+01  2.400000e+01  2.400000e+01  -6.931472e-01  0.000000e+00
7.499659e+02  1.200000e+01  2.400000e+01  2.400000e+01  -6.931472e-01  0.000000e+00
7.558141e+02  1.200000e+01  2.400000e+01  2.400000e+01  -6.931472e-01  0.000000e+00
7.581522e+02  1.200000e+01  2.400000e+01  2.400000e+01  -6.931472e-01  0.000000e+00
7.618828e+02  1.200000e+01  2.400000e+01  2.400000e+01  -6.931472e-01  0.000000e+00
7.659453e+02  1.200000e+01  2.400000e+01  2.400000e+01  -6.931472e-01  0.000000e+00
7.722165e+02  1.200000e+01  2.400000e+01  2.400000e+01  -6.931472e-01  0.000000e+00
7.758996e+02  1.200000e+01  2.400000e+01  2.400000e+01  -6.931472e-01  0.000000e+00
7.781007e+02  1.200000e+01  2.400000e+01  2.400000e+01  -6.931472e-01  0.000000e+00
7.817492e+02  1.200000e+01  2.400000e+01  2.400000e+01  -6.931472e-01  0.000000e+00
7.858966e+02  1.200000e+01  2.400000e+01  2.400000e+01  -6.931472e-01  0.000000e+00
7.901574e+02  1.200000e+01  2.400000e+01  2.400000e+01  -6.931472e-01  0.000000e+00
7.938934e+02  1.200000e+01  2.400000e+01  2.400000e+01  -6.931472e-01  0.000000e+00
7.981402e+02  1.200000e+01  2.400000e+01  2.400000e+01  -6.931472e-01  0.000000e+00
8.018532e+02  1.200000e+01  2.400000e+01  2.400000e+01  -6.931472e-01  0.000000e+00
8.060837e+02  1.200000e+01  2.400000e+01  2.400000e+01  -6.931472e-01  0.000000e+00
8.101834e+02  1.200000e+01  2.400000e+01  2.400000e+01  -6.931472e-01  0.000000e+00
8.139832e+02  1.200000e+01  2.400000e+01  2.400000e+01  -6.931472e-01  0.000000e+00
8.180611e+02  1.200000e+01  2.400000e+01  2.400000e+01  -6.931472e-01  0.000000e+00
8.222550e+02  1.200000e+01  2.400000e+01  2.400000e+01  -6.931472e-01  0.000000e+00
8.280536e+02  1.200000e+01  2.400000e+01  2.400000e+01  -6.931472e-01  0.000000e+00
8.298008e+02  1.200000e+01  2.400000e+01  2.400000e+01  -6.931472e-01  0.000000e+00
8.338291e+02  1.200000e+01  2.400000e+01  2.400000e+01  -6.931472e-01  0.000000e+00
8.379744e+02  1.200000e+01  2.400000e+01  2.400000e+01  -6.931472e-01  0.000000e+00
8.419765e+02  1.200000e+01  2.400000e+01  2.400000e+01  -6.931472e-01  0.000000e+00
8.462719e+02  1.200000e+01  2.400000e+01  2.400000e+01  -6.931472e-01  0.000000e+00
8.499802e+02  1.200000e+01  2.400000e+01  2.400000e+01  -6.931472e-01  0.000000e+00
8.542492e+02  1.200000e+01  2.400000e+01  2.400000e+01  -6.931472e-01  0.000000e+00
8.579218e+02  1.200000e+01  2.400000e+01  2.400000e+01  -6.931472e-01  0.000000e+00
8.618899e+02  1.200000e+01  2.400000e+01  2.400000e+01  -6.931472e-01  0.000000e+00
8.659778e+02  1.200000e+01  2.400000e+01  2.400000e+01  -6.931472e-01  0.000000e+00
8.718889e+02  1.200000e+01  2.400000e+01  2.400000e+01  -6.931472e-01  0.000000e+00
8.741504e+02  1.200000e+01  2.400000e+01  2.400000e+01  -6.931472e-01  0.000000e+00
8.780488e+02  1.200000e+01  2.400000e+01  2.400000e+01  -6.931472e-01  0.000000e+00
8.819734e+02  1.200000e+01  2.400000e+01  2.400000e+01  -6.931472e-01  0.000000e+00
8.860198e+02  1.200000e+01  2.400000e+01  2.400000e+01  -6.931472e-01  0.000000e+00
8.899047e+02  1.200000e+01  2.400000e+01  2.400000e+01  -6.931472e-01  0.000000e+00
8.941024e+02  1.200000e+01  2.400000e+01  2.400000e+01  -6.931472e-01  0.000000e+00
8.979460e+02  1.200000e+01  2.400000e+01  2.400000e+01  -6.931472e-01  0.000000e+00
9.018145e+02  1.200000e+01  2.400000e+01  2.400000e+01  -6.931472e-01  0.000000e+00
9.062941e+02  1.200000e+01  2.400000e+01  2.400000e+01  -6.931472e-01  0.000000e+00
9.101202e+02  1.200000e+01  2.400000e+01  2.400000e+01  -6.931472e-01  0.000000e+00
9.142676e+02  1.200000e+01  2.400000e+01  2.400000e+01  -6.931472e-01  0.000000e+00
9.182449e+02  1.200000e+01  2.400000e+01  2.400000e+01  -6.931472e-01  0.000000e+00
9.220485e+02  1.200000e+01  2.400000e+01  2.400000e+01  -6.931472e-01  0.000000e+00
9.261787e+02  1.200000e+01  2.400000e+01  2.400000e+01  -6.931472e-01  0.000000e+00
9.301344e+02  1.200000e+01  2.400000e+01  2.400000e+01  -6.931472e-01  0.000000e+00
9.342186e+02  1.200000e+01  2.400000e+01  2.400000e+01  -6.931472e-01  0.000000e+00
9.378162e+02  1.200000e+01  2.400000e+01  2.400000e+01  -6.931472e-01  0.000000e+00
9.417452e+02  1.200000e+01  2.400000e+01  2.400000e+01  -6.931472e-01  0.000000e+00
9.463242e+02  1.200000e+01  2.400000e+01  2.400000e+01  -6.931472e-01  0.000000e+00
9.498890e+02  1.200000e+01  2.400000e+01  2.400000e+01  -6.931472e-01  0.000000e+00
9.541072e+02  1.200000e+01  2.400000e+01  2.400000e+01  -6.931472e-01  0.000000e+00
9.578234e+02  1.200000e+01  2.400000e+01  2.400000e+01  -6.931472e-01  0.000000e+00
9.622024e+02  1.200000e+01  2.400000e+01  2.400000e+01  -6.931472e-01  0.000000e+00
9.660746e+02  1.200000e+01  2.400000e+01  2.400000e+01  -6.931472e-01  0.000000e+00
9.697548e+02  1.200000e+01  2.400000e+01  2.400000e+01  -6.931472e-01  0.000000e+00
9.741091e+02  1.200000e+01  2.400000e+01  2.400000e+01  -6.931472e-01  0.000000e+00
9.779459e+02  1.200000e+01  2.400000e+01  2.400000e+01  -6.931472e-01  0.000000e+00
9.821361e+02  1.200000e+01  2.400000e+01  2.400000e+01  -6.931472e-01  0.000000e+00
9.861324e+02  1.200000e+01  2.400000e+01  2.400000e+01  -6.931472e-01  0.000000e+00
9.899309e+02  1.200000e+01  2.400000e+01  2.400000e+01  -6.931472e-01  0.000000e+00
9.940882e+02  1.200000e+01  2.400000e+01  2.400000e+01  -6.931472e-01  0.000000e+00
9.980469e+02  1.200000e+01  2.400000e+01  2.400000e+01  -6.931472e-01  0.000000e+00
8.926394e+02  1.200000e+01  2.400000e+01  2.400000e+01  -6.931472e-01  0.000000e+00
9.159942e+02  1.200000e+01  2.400000e+01  2.400000e+01  -6.931472e-01  0.000000e+00
9.351948e+02  1.200000e+01  2.400000e+01  2.400000e+01  -6.931472e-01  0.000000e+00
9.551219e+02  1.200000e+01  2.400000e+01  2.400000e+01  -6.931472e-01  0.000000e+00
9.741882e+02  1.200000e+01  2.400000e+01  2.400000e+01  -6.931472e-01  0.000000e+00
9.967406e+02  1.200000e+01  2.400000e+01  2.400000e+01  -6.931472e-01  0.000000e+00
1.015712e+03  1.200000e+01  2.400000e+01  2.400000e+01  -6.931472e-01  0.000000e+00
1.035360e+03  1.200000e+01  2.400000e+01  2.400000e+01  -6.931472e-01  0.000000e+00