Folder: HESEBScanTool/DATA/Test-20220320T092140

Note: README.md
# HESEBScanTool
This a scanning tool for collecting experimental data from Helmholtz SESAME Soft X-ray Beamline (HESEB). 

# Scanning tool feature: 

Collect data from detectors simultaneously
Runs as “unattended scanning mode”
Enable data writing in xdi files
Online / offline logging 
Automatic data transfer to data center (after each scan)
Input data validation 
More to be done: 
Finalize automatic proposal and user metadata extraction from users DB.
Store the data in HDF5 dxFile format 
Develop a tool to convert HDF5 dxFile to xdi files 
Public documentation targeting end-users (how-to)
![image](https://user-images.githubusercontent.com/10595891/176128021-fdba9ed3-97b9-449d-aafa-819c299ecc90.png)

File: Test_test_Scan1_20220320T092140.xdi
# XDI/1.0 SED_XAFS/0.9
# Column.1: energy eV
# Column.2: I0
# Column.3: Itrans
# Column.4: Irefer
# Column.5: mutrans (log(I0/Itrans))
# Column.6: murefer (log(Itrans/Irefer))
# Experiment.Type: Local
# Base.file_name: Test
# Element.edge: K
# Mono.name: Si 111
# Mono.d_spacing: 3.1356
# Mono.settling_time: 0.01
# Beamline.name: XAFS/XRF Beamline (08-BM)
# Beamline.collimation: slits
# Beamline.focusing: no
# Beamline.harmonic_rejection: mirror coating VCM: Si, VFM: Si
# Facility.name: SESAME Synchrotron-light
# Facility.energy: 2.50 GeV
# Facility.current: 0.0
# Facility.xray_source: SESAME Bending Magnet
# Scan.start_time: 2022-03-20T09:21:40
# Scan.end_time: 2022-03-20T09:22:11
# Scan.edge_energy: 22
# Scan.number: 1/1 -- intervals: 2, samples: 1
# Detector.IC1: 15cm  v
# Detector.IC2: 30cm  v
# Detector.IC3: 15cm  v
# Element.symbol: Cu
# Sample.stoichiometry: NONE
# Sample.prep: mbnm
# ///
# Experiment comments and remarks: NONE
# User comments and remarks: NONE
#----
#(1)energy   (2)I0   (3)Itrans   (4)Irefer   (5)mutrans   (6)murefer
6.514865e+02  1.200000e+01  2.400000e+01  2.400000e+01  -6.931472e-01  0.000000e+00
6.543456e+02  1.200000e+01  2.400000e+01  2.400000e+01  -6.931472e-01  0.000000e+00
6.573842e+02  1.200000e+01  2.400000e+01  2.400000e+01  -6.931472e-01  0.000000e+00
6.603340e+02  1.200000e+01  2.400000e+01  2.400000e+01  -6.931472e-01  0.000000e+00
6.635186e+02  1.200000e+01  2.400000e+01  2.400000e+01  -6.931472e-01  0.000000e+00
6.669497e+02  1.200000e+01  2.400000e+01  2.400000e+01  -6.931472e-01  0.000000e+00
6.697923e+02  1.200000e+01  2.400000e+01  2.400000e+01  -6.931472e-01  0.000000e+00
6.725400e+02  1.200000e+01  2.400000e+01  2.400000e+01  -6.931472e-01  0.000000e+00
6.759208e+02  1.200000e+01  2.400000e+01  2.400000e+01  -6.931472e-01  0.000000e+00
6.786457e+02  1.200000e+01  2.400000e+01  2.400000e+01  -6.931472e-01  0.000000e+00
6.814414e+02  1.200000e+01  2.400000e+01  2.400000e+01  -6.931472e-01  0.000000e+00
6.845411e+02  1.200000e+01  2.400000e+01  2.400000e+01  -6.931472e-01  0.000000e+00
6.875452e+02  1.200000e+01  2.400000e+01  2.400000e+01  -6.931472e-01  0.000000e+00
6.911509e+02  1.200000e+01  2.400000e+01  2.400000e+01  -6.931472e-01  0.000000e+00
6.941358e+02  1.200000e+01  2.400000e+01  2.400000e+01  -6.931472e-01  0.000000e+00
6.971402e+02  1.200000e+01  2.400000e+01  2.400000e+01  -6.931472e-01  0.000000e+00
7.002207e+02  1.200000e+01  2.400000e+01  2.400000e+01  -6.931472e-01  0.000000e+00
7.029021e+02  1.200000e+01  2.400000e+01  2.400000e+01  -6.931472e-01  0.000000e+00
7.057777e+02  1.200000e+01  2.400000e+01  2.400000e+01  -6.931472e-01  0.000000e+00
7.088509e+02  1.200000e+01  2.400000e+01  2.400000e+01  -6.931472e-01  0.000000e+00
7.118210e+02  1.200000e+01  2.400000e+01  2.400000e+01  -6.931472e-01  0.000000e+00
7.156053e+02  1.200000e+01  2.400000e+01  2.400000e+01  -6.931472e-01  0.000000e+00
7.186769e+02  1.200000e+01  2.400000e+01  2.400000e+01  -6.931472e-01  0.000000e+00
7.216426e+02  1.200000e+01  2.400000e+01  2.400000e+01  -6.931472e-01  0.000000e+00
7.245001e+02  1.200000e+01  2.400000e+01  2.400000e+01  -6.931472e-01  0.000000e+00
7.275619e+02  1.200000e+01  2.400000e+01  2.400000e+01  -6.931472e-01  0.000000e+00
7.305150e+02  1.200000e+01  2.400000e+01  2.400000e+01  -6.931472e-01  0.000000e+00
7.333573e+02  1.200000e+01  2.400000e+01  2.400000e+01  -6.931472e-01  0.000000e+00
7.370480e+02  1.200000e+01  2.400000e+01  2.400000e+01  -6.931472e-01  0.000000e+00
7.399900e+02  1.200000e+01  2.400000e+01  2.400000e+01  -6.931472e-01  0.000000e+00
7.429497e+02  1.200000e+01  2.400000e+01  2.400000e+01  -6.931472e-01  0.000000e+00
7.456629e+02  1.200000e+01  2.400000e+01  2.400000e+01  -6.931472e-01  0.000000e+00
7.485864e+02  1.200000e+01  2.400000e+01  2.400000e+01  -6.931472e-01  0.000000e+00
1.044144e+03  1.200000e+01  2.400000e+01  2.400000e+01  -6.931472e-01  0.000000e+00
9.475258e+02  1.200000e+01  2.400000e+01  2.400000e+01  -6.931472e-01  0.000000e+00
9.565163e+02  1.200000e+01  2.400000e+01  2.400000e+01  -6.931472e-01  0.000000e+00
9.668664e+02  1.200000e+01  2.400000e+01  2.400000e+01  -6.931472e-01  0.000000e+00
9.759129e+02  1.200000e+01  2.400000e+01  2.400000e+01  -6.931472e-01  0.000000e+00
9.865553e+02  1.200000e+01  2.400000e+01  2.400000e+01  -6.931472e-01  0.000000e+00
9.983922e+02  1.200000e+01  2.400000e+01  2.400000e+01  -6.931472e-01  0.000000e+00
1.008869e+03  1.200000e+01  2.400000e+01  2.400000e+01  -6.931472e-01  0.000000e+00
1.018460e+03  1.200000e+01  2.400000e+01  2.400000e+01  -6.931472e-01  0.000000e+00
1.028388e+03  1.200000e+01  2.400000e+01  2.400000e+01  -6.931472e-01  0.000000e+00
1.037699e+03  1.200000e+01  2.400000e+01  2.400000e+01  -6.931472e-01  0.000000e+00
1.048103e+03  1.200000e+01  2.400000e+01  2.400000e+01  -6.931472e-01  0.000000e+00
1.058651e+03  1.200000e+01  2.400000e+01  2.400000e+01  -6.931472e-01  0.000000e+00
1.070265e+03  1.200000e+01  2.400000e+01  2.400000e+01  -6.931472e-01  0.000000e+00
1.079313e+03  1.200000e+01  2.400000e+01  2.400000e+01  -6.931472e-01  0.000000e+00
1.090184e+03  1.200000e+01  2.400000e+01  2.400000e+01  -6.931472e-01  0.000000e+00
1.099929e+03  1.200000e+01  2.400000e+01  2.400000e+01  -6.931472e-01  0.000000e+00
1.109439e+03  1.200000e+01  2.400000e+01  2.400000e+01  -6.931472e-01  0.000000e+00
1.119657e+03  1.200000e+01  2.400000e+01  2.400000e+01  -6.931472e-01  0.000000e+00
1.128919e+03  1.200000e+01  2.400000e+01  2.400000e+01  -6.931472e-01  0.000000e+00
1.139143e+03  1.200000e+01  2.400000e+01  2.400000e+01  -6.931472e-01  0.000000e+00
1.151260e+03  1.200000e+01  2.400000e+01  2.400000e+01  -6.931472e-01  0.000000e+00
1.161262e+03  1.200000e+01  2.400000e+01  2.400000e+01  -6.931472e-01  0.000000e+00
1.170357e+03  1.200000e+01  2.400000e+01  2.400000e+01  -6.931472e-01  0.000000e+00
1.181366e+03  1.200000e+01  2.400000e+01  2.400000e+01  -6.931472e-01  0.000000e+00
1.190417e+03  1.200000e+01  2.400000e+01  2.400000e+01  -6.931472e-01  0.000000e+00
1.201156e+03  1.200000e+01  2.400000e+01  2.400000e+01  -6.931472e-01  0.000000e+00
1.210675e+03  1.200000e+01  2.400000e+01  2.400000e+01  -6.931472e-01  0.000000e+00
1.219627e+03  1.200000e+01  2.400000e+01  2.400000e+01  -6.931472e-01  0.000000e+00
1.231586e+03  1.200000e+01  2.400000e+01  2.400000e+01  -6.931472e-01  0.000000e+00
1.242286e+03  1.200000e+01  2.400000e+01  2.400000e+01  -6.931472e-01  0.000000e+00
1.251135e+03  1.200000e+01  2.400000e+01  2.400000e+01  -6.931472e-01  0.000000e+00
1.261783e+03  1.200000e+01  2.400000e+01  2.400000e+01  -6.931472e-01  0.000000e+00
1.271255e+03  1.200000e+01  2.400000e+01  2.400000e+01  -6.931472e-01  0.000000e+00
1.281410e+03  1.200000e+01  2.400000e+01  2.400000e+01  -6.931472e-01  0.000000e+00
1.290786e+03  1.200000e+01  2.400000e+01  2.400000e+01  -6.931472e-01  0.000000e+00