Folder: HESEBScanTool/DATA/Test-20220320T091458

Note: README.md
# HESEBScanTool
This a scanning tool for collecting experimental data from Helmholtz SESAME Soft X-ray Beamline (HESEB). 

# Scanning tool feature: 

Collect data from detectors simultaneously
Runs as “unattended scanning mode”
Enable data writing in xdi files
Online / offline logging 
Automatic data transfer to data center (after each scan)
Input data validation 
More to be done: 
Finalize automatic proposal and user metadata extraction from users DB.
Store the data in HDF5 dxFile format 
Develop a tool to convert HDF5 dxFile to xdi files 
Public documentation targeting end-users (how-to)
![image](https://user-images.githubusercontent.com/10595891/176128021-fdba9ed3-97b9-449d-aafa-819c299ecc90.png)

File: Test_test_Scan1_20220320T091458.xdi
# XDI/1.0 SED_XAFS/0.9
# Column.1: energy eV
# Column.2: I0
# Column.3: Itrans
# Column.4: Irefer
# Column.5: mutrans (log(I0/Itrans))
# Column.6: murefer (log(Itrans/Irefer))
# Experiment.Type: Local
# Base.file_name: Test
# Element.edge: K
# Mono.name: Si 111
# Mono.d_spacing: 3.1356
# Mono.settling_time: 0.01
# Beamline.name: XAFS/XRF Beamline (08-BM)
# Beamline.collimation: slits
# Beamline.focusing: no
# Beamline.harmonic_rejection: mirror coating VCM: Si, VFM: Si
# Facility.name: SESAME Synchrotron-light
# Facility.energy: 2.50 GeV
# Facility.current: 0.0
# Facility.xray_source: SESAME Bending Magnet
# Scan.start_time: 2022-03-20T09:14:58
# Scan.end_time: 2022-03-20T09:15:28
# Scan.edge_energy: 22
# Scan.number: 1/2 -- intervals: 2, samples: 1
# Detector.IC1: 15cm  v
# Detector.IC2: 30cm  v
# Detector.IC3: 15cm  v
# Element.symbol: Cu
# Sample.stoichiometry: NONE
# Sample.prep: mbnm
# ///
# Experiment comments and remarks: NONE
# User comments and remarks: NONE
#----
#(1)energy   (2)I0   (3)Itrans   (4)Irefer   (5)mutrans   (6)murefer
6.511127e+02  1.200000e+01  2.400000e+01  2.400000e+01  -6.931472e-01  0.000000e+00
6.542371e+02  1.200000e+01  2.400000e+01  2.400000e+01  -6.931472e-01  0.000000e+00
6.570053e+02  1.200000e+01  2.400000e+01  2.400000e+01  -6.931472e-01  0.000000e+00
6.604440e+02  1.200000e+01  2.400000e+01  2.400000e+01  -6.931472e-01  0.000000e+00
6.639033e+02  1.200000e+01  2.400000e+01  2.400000e+01  -6.931472e-01  0.000000e+00
6.663983e+02  1.200000e+01  2.400000e+01  2.400000e+01  -6.931472e-01  0.000000e+00
6.696799e+02  1.200000e+01  2.400000e+01  2.400000e+01  -6.931472e-01  0.000000e+00
6.724270e+02  1.200000e+01  2.400000e+01  2.400000e+01  -6.931472e-01  0.000000e+00
6.755256e+02  1.200000e+01  2.400000e+01  2.400000e+01  -6.931472e-01  0.000000e+00
6.792124e+02  1.200000e+01  2.400000e+01  2.400000e+01  -6.931472e-01  0.000000e+00
6.821271e+02  1.200000e+01  2.400000e+01  2.400000e+01  -6.931472e-01  0.000000e+00
6.849443e+02  1.200000e+01  2.400000e+01  2.400000e+01  -6.931472e-01  0.000000e+00
6.882402e+02  1.200000e+01  2.400000e+01  2.400000e+01  -6.931472e-01  0.000000e+00
6.908599e+02  1.200000e+01  2.400000e+01  2.400000e+01  -6.931472e-01  0.000000e+00
6.941358e+02  1.200000e+01  2.400000e+01  2.400000e+01  -6.931472e-01  0.000000e+00
6.968454e+02  1.200000e+01  2.400000e+01  2.400000e+01  -6.931472e-01  0.000000e+00
6.999240e+02  1.200000e+01  2.400000e+01  2.400000e+01  -6.931472e-01  0.000000e+00
7.037988e+02  1.200000e+01  2.400000e+01  2.400000e+01  -6.931472e-01  0.000000e+00
7.060781e+02  1.200000e+01  2.400000e+01  2.400000e+01  -6.931472e-01  0.000000e+00
7.088509e+02  1.200000e+01  2.400000e+01  2.400000e+01  -6.931472e-01  0.000000e+00
7.121254e+02  1.200000e+01  2.400000e+01  2.400000e+01  -6.931472e-01  0.000000e+00
7.149922e+02  1.200000e+01  2.400000e+01  2.400000e+01  -6.931472e-01  0.000000e+00
7.180598e+02  1.200000e+01  2.400000e+01  2.400000e+01  -6.931472e-01  0.000000e+00
7.216426e+02  1.200000e+01  2.400000e+01  2.400000e+01  -6.931472e-01  0.000000e+00
7.248128e+02  1.200000e+01  2.400000e+01  2.400000e+01  -6.931472e-01  0.000000e+00
7.275619e+02  1.200000e+01  2.400000e+01  2.400000e+01  -6.931472e-01  0.000000e+00
7.308316e+02  1.200000e+01  2.400000e+01  2.400000e+01  -6.931472e-01  0.000000e+00
7.333573e+02  1.200000e+01  2.400000e+01  2.400000e+01  -6.931472e-01  0.000000e+00
7.364069e+02  1.200000e+01  2.400000e+01  2.400000e+01  -6.931472e-01  0.000000e+00
7.396674e+02  1.200000e+01  2.400000e+01  2.400000e+01  -6.931472e-01  0.000000e+00
7.423009e+02  1.200000e+01  2.400000e+01  2.400000e+01  -6.931472e-01  0.000000e+00
7.459894e+02  1.200000e+01  2.400000e+01  2.400000e+01  -6.931472e-01  0.000000e+00
7.459894e+02  1.200000e+01  2.400000e+01  2.400000e+01  -6.931472e-01  0.000000e+00
1.040747e+03  1.200000e+01  2.400000e+01  2.400000e+01  -6.931472e-01  0.000000e+00
9.489357e+02  1.200000e+01  2.400000e+01  2.400000e+01  -6.931472e-01  0.000000e+00
9.579457e+02  1.200000e+01  2.400000e+01  2.400000e+01  -6.931472e-01  0.000000e+00
9.683194e+02  1.200000e+01  2.400000e+01  2.400000e+01  -6.931472e-01  0.000000e+00
9.770958e+02  1.200000e+01  2.400000e+01  2.400000e+01  -6.931472e-01  0.000000e+00
9.877581e+02  1.200000e+01  2.400000e+01  2.400000e+01  -6.931472e-01  0.000000e+00
9.968709e+02  1.200000e+01  2.400000e+01  2.400000e+01  -6.931472e-01  0.000000e+00
1.007214e+03  1.200000e+01  2.400000e+01  2.400000e+01  -6.931472e-01  0.000000e+00
1.018881e+03  1.200000e+01  2.400000e+01  2.400000e+01  -6.931472e-01  0.000000e+00
1.029342e+03  1.200000e+01  2.400000e+01  2.400000e+01  -6.931472e-01  0.000000e+00
1.037814e+03  1.200000e+01  2.400000e+01  2.400000e+01  -6.931472e-01  0.000000e+00
1.048542e+03  1.200000e+01  2.400000e+01  2.400000e+01  -6.931472e-01  0.000000e+00
1.059097e+03  1.200000e+01  2.400000e+01  2.400000e+01  -6.931472e-01  0.000000e+00
1.068349e+03  1.200000e+01  2.400000e+01  2.400000e+01  -6.931472e-01  0.000000e+00
1.078840e+03  1.200000e+01  2.400000e+01  2.400000e+01  -6.931472e-01  0.000000e+00
1.087983e+03  1.200000e+01  2.400000e+01  2.400000e+01  -6.931472e-01  0.000000e+00
1.099583e+03  1.200000e+01  2.400000e+01  2.400000e+01  -6.931472e-01  0.000000e+00
1.110270e+03  1.200000e+01  2.400000e+01  2.400000e+01  -6.931472e-01  0.000000e+00
1.118945e+03  1.200000e+01  2.400000e+01  2.400000e+01  -6.931472e-01  0.000000e+00
1.129771e+03  1.200000e+01  2.400000e+01  2.400000e+01  -6.931472e-01  0.000000e+00
1.140007e+03  1.200000e+01  2.400000e+01  2.400000e+01  -6.931472e-01  0.000000e+00
1.149373e+03  1.200000e+01  2.400000e+01  2.400000e+01  -6.931472e-01  0.000000e+00
1.159726e+03  1.200000e+01  2.400000e+01  2.400000e+01  -6.931472e-01  0.000000e+00
1.171257e+03  1.200000e+01  2.400000e+01  2.400000e+01  -6.931472e-01  0.000000e+00
1.180980e+03  1.200000e+01  2.400000e+01  2.400000e+01  -6.931472e-01  0.000000e+00
1.191341e+03  1.200000e+01  2.400000e+01  2.400000e+01  -6.931472e-01  0.000000e+00
1.200760e+03  1.200000e+01  2.400000e+01  2.400000e+01  -6.931472e-01  0.000000e+00
1.210820e+03  1.200000e+01  2.400000e+01  2.400000e+01  -6.931472e-01  0.000000e+00
1.221137e+03  1.200000e+01  2.400000e+01  2.400000e+01  -6.931472e-01  0.000000e+00
1.230057e+03  1.200000e+01  2.400000e+01  2.400000e+01  -6.931472e-01  0.000000e+00
1.240736e+03  1.200000e+01  2.400000e+01  2.400000e+01  -6.931472e-01  0.000000e+00
1.249569e+03  1.200000e+01  2.400000e+01  2.400000e+01  -6.931472e-01  0.000000e+00
1.262364e+03  1.200000e+01  2.400000e+01  2.400000e+01  -6.931472e-01  0.000000e+00
1.272569e+03  1.200000e+01  2.400000e+01  2.400000e+01  -6.931472e-01  0.000000e+00
1.281568e+03  1.200000e+01  2.400000e+01  2.400000e+01  -6.931472e-01  0.000000e+00
1.291828e+03  1.200000e+01  2.400000e+01  2.400000e+01  -6.931472e-01  0.000000e+00

File: Test_test_Scan2_20220320T091458.xdi
# XDI/1.0 SED_XAFS/0.9
# Column.1: energy eV
# Column.2: I0
# Column.3: Itrans
# Column.4: Irefer
# Column.5: mutrans (log(I0/Itrans))
# Column.6: murefer (log(Itrans/Irefer))
# Experiment.Type: Local
# Base.file_name: Test
# Element.edge: K
# Mono.name: Si 111
# Mono.d_spacing: 3.1356
# Mono.settling_time: 0.01
# Beamline.name: XAFS/XRF Beamline (08-BM)
# Beamline.collimation: slits
# Beamline.focusing: no
# Beamline.harmonic_rejection: mirror coating VCM: Si, VFM: Si
# Facility.name: SESAME Synchrotron-light
# Facility.energy: 2.50 GeV
# Facility.current: 0.0
# Facility.xray_source: SESAME Bending Magnet
# Scan.start_time: 2022-03-20T09:14:58
# Scan.end_time: 2022-03-20T09:18:22
# Scan.edge_energy: 22
# Scan.number: 2/2 -- intervals: 2, samples: 1
# Detector.IC1: 15cm  v
# Detector.IC2: 30cm  v
# Detector.IC3: 15cm  v
# Element.symbol: Cu
# Sample.stoichiometry: NONE
# Sample.prep: mbnm
# ///
# Experiment comments and remarks: NONE
# User comments and remarks: NONE
#----
#(1)energy   (2)I0   (3)Itrans   (4)Irefer   (5)mutrans   (6)murefer
6.463564e+02  1.200000e+01  2.400000e+01  2.400000e+01  -6.931472e-01  0.000000e+00
6.512204e+02  1.200000e+01  2.400000e+01  2.400000e+01  -6.931472e-01  0.000000e+00
6.543456e+02  1.200000e+01  2.400000e+01  2.400000e+01  -6.931472e-01  0.000000e+00
6.571144e+02  1.200000e+01  2.400000e+01  2.400000e+01  -6.931472e-01  0.000000e+00
6.602240e+02  1.200000e+01  2.400000e+01  2.400000e+01  -6.931472e-01  0.000000e+00
6.640142e+02  1.200000e+01  2.400000e+01  2.400000e+01  -6.931472e-01  0.000000e+00
6.666739e+02  1.200000e+01  2.400000e+01  2.400000e+01  -6.931472e-01  0.000000e+00
6.697923e+02  1.200000e+01  2.400000e+01  2.400000e+01  -6.931472e-01  0.000000e+00
6.725400e+02  1.200000e+01  2.400000e+01  2.400000e+01  -6.931472e-01  0.000000e+00
6.756394e+02  1.200000e+01  2.400000e+01  2.400000e+01  -6.931472e-01  0.000000e+00
6.788142e+02  1.200000e+01  2.400000e+01  2.400000e+01  -6.931472e-01  0.000000e+00
6.814414e+02  1.200000e+01  2.400000e+01  2.400000e+01  -6.931472e-01  0.000000e+00
6.843704e+02  1.200000e+01  2.400000e+01  2.400000e+01  -6.931472e-01  0.000000e+00
6.885296e+02  1.200000e+01  2.400000e+01  2.400000e+01  -6.931472e-01  0.000000e+00
6.908599e+02  1.200000e+01  2.400000e+01  2.400000e+01  -6.931472e-01  0.000000e+00
6.941358e+02  1.200000e+01  2.400000e+01  2.400000e+01  -6.931472e-01  0.000000e+00
6.971402e+02  1.200000e+01  2.400000e+01  2.400000e+01  -6.931472e-01  0.000000e+00
6.999240e+02  1.200000e+01  2.400000e+01  2.400000e+01  -6.931472e-01  0.000000e+00
7.029021e+02  1.200000e+01  2.400000e+01  2.400000e+01  -6.931472e-01  0.000000e+00
7.057777e+02  1.200000e+01  2.400000e+01  2.400000e+01  -6.931472e-01  0.000000e+00
7.094560e+02  1.200000e+01  2.400000e+01  2.400000e+01  -6.931472e-01  0.000000e+00
7.124300e+02  1.200000e+01  2.400000e+01  2.400000e+01  -6.931472e-01  0.000000e+00
7.156053e+02  1.200000e+01  2.400000e+01  2.400000e+01  -6.931472e-01  0.000000e+00
7.183682e+02  1.200000e+01  2.400000e+01  2.400000e+01  -6.931472e-01  0.000000e+00
7.213320e+02  1.200000e+01  2.400000e+01  2.400000e+01  -6.931472e-01  0.000000e+00
7.245001e+02  1.200000e+01  2.400000e+01  2.400000e+01  -6.931472e-01  0.000000e+00
7.275619e+02  1.200000e+01  2.400000e+01  2.400000e+01  -6.931472e-01  0.000000e+00
7.305150e+02  1.200000e+01  2.400000e+01  2.400000e+01  -6.931472e-01  0.000000e+00
7.339944e+02  1.200000e+01  2.400000e+01  2.400000e+01  -6.931472e-01  0.000000e+00
7.367273e+02  1.200000e+01  2.400000e+01  2.400000e+01  -6.931472e-01  0.000000e+00
7.370480e+02  1.200000e+01  2.400000e+01  2.400000e+01  -6.931472e-01  0.000000e+00
7.426252e+02  1.200000e+01  2.400000e+01  2.400000e+01  -6.931472e-01  0.000000e+00
7.456629e+02  1.200000e+01  2.400000e+01  2.400000e+01  -6.931472e-01  0.000000e+00
7.485864e+02  1.200000e+01  2.400000e+01  2.400000e+01  -6.931472e-01  0.000000e+00
1.042783e+03  1.200000e+01  2.400000e+01  2.400000e+01  -6.931472e-01  0.000000e+00
9.475258e+02  1.200000e+01  2.400000e+01  2.400000e+01  -6.931472e-01  0.000000e+00
9.584970e+02  1.200000e+01  2.400000e+01  2.400000e+01  -6.931472e-01  0.000000e+00
9.659991e+02  1.200000e+01  2.400000e+01  2.400000e+01  -6.931472e-01  0.000000e+00
9.779786e+02  1.200000e+01  2.400000e+01  2.400000e+01  -6.931472e-01  0.000000e+00
9.886556e+02  1.200000e+01  2.400000e+01  2.400000e+01  -6.931472e-01  0.000000e+00
9.977806e+02  1.200000e+01  2.400000e+01  2.400000e+01  -6.931472e-01  0.000000e+00
1.009063e+03  1.200000e+01  2.400000e+01  2.400000e+01  -6.931472e-01  0.000000e+00
1.017522e+03  1.200000e+01  2.400000e+01  2.400000e+01  -6.931472e-01  0.000000e+00
1.027749e+03  1.200000e+01  2.400000e+01  2.400000e+01  -6.931472e-01  0.000000e+00
1.038335e+03  1.200000e+01  2.400000e+01  2.400000e+01  -6.931472e-01  0.000000e+00
1.047446e+03  1.200000e+01  2.400000e+01  2.400000e+01  -6.931472e-01  0.000000e+00
1.059438e+03  1.200000e+01  2.400000e+01  2.400000e+01  -6.931472e-01  0.000000e+00
1.069812e+03  1.200000e+01  2.400000e+01  2.400000e+01  -6.931472e-01  0.000000e+00
1.078854e+03  1.200000e+01  2.400000e+01  2.400000e+01  -6.931472e-01  0.000000e+00
1.089144e+03  1.200000e+01  2.400000e+01  2.400000e+01  -6.931472e-01  0.000000e+00
1.099457e+03  1.200000e+01  2.400000e+01  2.400000e+01  -6.931472e-01  0.000000e+00
1.108723e+03  1.200000e+01  2.400000e+01  2.400000e+01  -6.931472e-01  0.000000e+00
1.119172e+03  1.200000e+01  2.400000e+01  2.400000e+01  -6.931472e-01  0.000000e+00
1.130755e+03  1.200000e+01  2.400000e+01  2.400000e+01  -6.931472e-01  0.000000e+00
1.139773e+03  1.200000e+01  2.400000e+01  2.400000e+01  -6.931472e-01  0.000000e+00
1.150754e+03  1.200000e+01  2.400000e+01  2.400000e+01  -6.931472e-01  0.000000e+00
1.160750e+03  1.200000e+01  2.400000e+01  2.400000e+01  -6.931472e-01  0.000000e+00
1.170098e+03  1.200000e+01  2.400000e+01  2.400000e+01  -6.931472e-01  0.000000e+00
1.180455e+03  1.200000e+01  2.400000e+01  2.400000e+01  -6.931472e-01  0.000000e+00
1.189496e+03  1.200000e+01  2.400000e+01  2.400000e+01  -6.931472e-01  0.000000e+00
1.200617e+03  1.200000e+01  2.400000e+01  2.400000e+01  -6.931472e-01  0.000000e+00
1.212314e+03  1.200000e+01  2.400000e+01  2.400000e+01  -6.931472e-01  0.000000e+00
1.221283e+03  1.200000e+01  2.400000e+01  2.400000e+01  -6.931472e-01  0.000000e+00
1.231586e+03  1.200000e+01  2.400000e+01  2.400000e+01  -6.931472e-01  0.000000e+00
1.241303e+03  1.200000e+01  2.400000e+01  2.400000e+01  -6.931472e-01  0.000000e+00
1.250562e+03  1.200000e+01  2.400000e+01  2.400000e+01  -6.931472e-01  0.000000e+00
1.260777e+03  1.200000e+01  2.400000e+01  2.400000e+01  -6.931472e-01  0.000000e+00
1.270237e+03  1.200000e+01  2.400000e+01  2.400000e+01  -6.931472e-01  0.000000e+00
1.281865e+03  1.200000e+01  2.400000e+01  2.400000e+01  -6.931472e-01  0.000000e+00
1.293174e+03  1.200000e+01  2.400000e+01  2.400000e+01  -6.931472e-01  0.000000e+00