Folder: HESEBScanTool/DATA/Test-20220320T094331

Note: README.md
# HESEBScanTool
This a scanning tool for collecting experimental data from Helmholtz SESAME Soft X-ray Beamline (HESEB). 

# Scanning tool feature: 

Collect data from detectors simultaneously
Runs as “unattended scanning mode”
Enable data writing in xdi files
Online / offline logging 
Automatic data transfer to data center (after each scan)
Input data validation 
More to be done: 
Finalize automatic proposal and user metadata extraction from users DB.
Store the data in HDF5 dxFile format 
Develop a tool to convert HDF5 dxFile to xdi files 
Public documentation targeting end-users (how-to)
![image](https://user-images.githubusercontent.com/10595891/176128021-fdba9ed3-97b9-449d-aafa-819c299ecc90.png)

File: Test_test_Scan1_20220320T094331.xdi
# XDI/1.0 SED_XAFS/0.9
# Column.1: energy eV
# Column.2: I0
# Column.3: Itrans
# Column.4: Irefer
# Column.5: mutrans (log(I0/Itrans))
# Column.6: murefer (log(Itrans/Irefer))
# Experiment.Type: Local
# Base.file_name: Test
# Element.edge: K
# Mono.name: Si 111
# Mono.d_spacing: 3.1356
# Mono.settling_time: 0.01
# Beamline.name: XAFS/XRF Beamline (08-BM)
# Beamline.collimation: slits
# Beamline.focusing: no
# Beamline.harmonic_rejection: mirror coating VCM: Si, VFM: Si
# Facility.name: SESAME Synchrotron-light
# Facility.energy: 2.50 GeV
# Facility.current: 0.0
# Facility.xray_source: SESAME Bending Magnet
# Scan.start_time: 2022-03-20T09:43:31
# Scan.end_time: 2022-03-20T09:44:02
# Scan.edge_energy: 22
# Scan.number: 1/1 -- intervals: 2, samples: 1
# Detector.IC1: 15cm  v
# Detector.IC2: 30cm  v
# Detector.IC3: 15cm  v
# Element.symbol: Cu
# Sample.stoichiometry: NONE
# Sample.prep: mbnm
# ///
# Experiment comments and remarks: NONE
# User comments and remarks: NONE
#----
#(1)energy   (2)I0   (3)Itrans   (4)Irefer   (5)mutrans   (6)murefer
6.514865e+02  1.200000e+01  2.400000e+01  2.400000e+01  -6.931472e-01  0.000000e+00
6.546137e+02  1.200000e+01  2.400000e+01  2.400000e+01  -6.931472e-01  0.000000e+00
6.572236e+02  1.200000e+01  2.400000e+01  2.400000e+01  -6.931472e-01  0.000000e+00
6.603340e+02  1.200000e+01  2.400000e+01  2.400000e+01  -6.931472e-01  0.000000e+00
6.635186e+02  1.200000e+01  2.400000e+01  2.400000e+01  -6.931472e-01  0.000000e+00
6.662868e+02  1.200000e+01  2.400000e+01  2.400000e+01  -6.931472e-01  0.000000e+00
6.692902e+02  1.200000e+01  2.400000e+01  2.400000e+01  -6.931472e-01  0.000000e+00
6.728194e+02  1.200000e+01  2.400000e+01  2.400000e+01  -6.931472e-01  0.000000e+00
6.759208e+02  1.200000e+01  2.400000e+01  2.400000e+01  -6.931472e-01  0.000000e+00
6.789289e+02  1.200000e+01  2.400000e+01  2.400000e+01  -6.931472e-01  0.000000e+00
6.815567e+02  1.200000e+01  2.400000e+01  2.400000e+01  -6.931472e-01  0.000000e+00
6.846572e+02  1.200000e+01  2.400000e+01  2.400000e+01  -6.931472e-01  0.000000e+00
6.876621e+02  1.200000e+01  2.400000e+01  2.400000e+01  -6.931472e-01  0.000000e+00
6.905691e+02  1.200000e+01  2.400000e+01  2.400000e+01  -6.931472e-01  0.000000e+00
6.944290e+02  1.200000e+01  2.400000e+01  2.400000e+01  -6.931472e-01  0.000000e+00
6.971402e+02  1.200000e+01  2.400000e+01  2.400000e+01  -6.931472e-01  0.000000e+00
9.866420e+02  1.200000e+01  2.400000e+01  2.400000e+01  -6.931472e-01  0.000000e+00
9.483689e+02  1.200000e+01  2.400000e+01  2.400000e+01  -6.931472e-01  0.000000e+00
9.570899e+02  1.200000e+01  2.400000e+01  2.400000e+01  -6.931472e-01  0.000000e+00
9.674496e+02  1.200000e+01  2.400000e+01  2.400000e+01  -6.931472e-01  0.000000e+00
9.765040e+02  1.200000e+01  2.400000e+01  2.400000e+01  -6.931472e-01  0.000000e+00
9.871564e+02  1.200000e+01  2.400000e+01  2.400000e+01  -6.931472e-01  0.000000e+00
9.974687e+02  1.200000e+01  2.400000e+01  2.400000e+01  -6.931472e-01  0.000000e+00
1.006910e+03  1.200000e+01  2.400000e+01  2.400000e+01  -6.931472e-01  0.000000e+00